index,accX,accY,accZ,gyroX,gyroY,gyroZ
1,0.162109375, -0.0244140625, -0.9599609375, -0.06097560975609757, 1.2804878048780488, 0.24390243902439027
3,0.1630859375, -0.025390625, -0.962890625, 0.1829268292682927, 1.707317073170732, 0.12195121951219513
5,0.1630859375, -0.02587890625, -0.98095703125, -1.829268292682927, 1.9512195121951221, -0.1829268292682927
7,0.16259765625, -0.0166015625, -0.97705078125, -3.1097560975609757, 1.0975609756097562, -0.24390243902439027
9,0.166015625, -0.017578125, -0.97509765625, -2.25609756097561, 0.7926829268292683, -0.30487804878048785
11,0.16552734375, -0.0185546875, -0.96728515625, -1.3414634146341464, 0.06097560975609757, -0.48780487804878053
13,0.16162109375, -0.01708984375, -0.96044921875, 2.8658536585365857, 0.6097560975609757, -0.3658536585365854
15,0.15966796875, -0.01318359375, -0.9736328125, 4.207317073170732, 0.7926829268292683, -0.3658536585365854
17,0.15966796875, -0.01220703125, -0.97607421875, 2.439024390243903, 0.7926829268292683, 0.0
19,0.15673828125, -0.025390625, -0.9736328125, 0.5487804878048781, 1.2804878048780488, 0.3658536585365854
21,0.15869140625, -0.03369140625, -0.970703125, -0.9146341463414634, 4.024390243902439, -0.12195121951219513
23,0.1572265625, -0.02880859375, -0.96826171875, -2.682926829268293, 3.2926829268292686, 0.12195121951219513
25,0.162109375, -0.03125, -0.97314453125, -2.3170731707317076, 2.804878048780488, 0.24390243902439027
27,0.162109375, -0.02099609375, -0.97314453125, -2.9268292682926833, 1.8902439024390245, 0.5487804878048781
29,0.16015625, -0.02099609375, -0.97265625, -2.5609756097560976, 1.1585365853658538, 0.7317073170731708
31,0.16455078125, -0.0126953125, -0.9677734375, -2.1951219512195124, 1.829268292682927, 0.5487804878048781
33,0.16357421875, -0.01953125, -0.970703125, -1.2804878048780488, 1.5853658536585367, 0.5487804878048781
35,0.1611328125, -0.0185546875, -0.966796875, 0.853658536585366, 1.524390243902439, 0.3658536585365854
37,0.1650390625, -0.0205078125, -0.96923828125, 1.0975609756097562, 1.3414634146341464, 0.6097560975609757
39,0.1591796875, -0.0283203125, -0.97412109375, -2.439024390243903, 2.378048780487805, 0.06097560975609757
41,0.15869140625, -0.029296875, -0.96923828125, -3.353658536585366, 2.1341463414634148, 0.1829268292682927
43,0.158203125, -0.02783203125, -0.97119140625, -2.8658536585365857, 2.1951219512195124, 0.30487804878048785
45,0.1640625, -0.025390625, -0.97802734375, -2.378048780487805, 2.073170731707317, -0.06097560975609757
47,0.1591796875, -0.02294921875, -0.9755859375, -2.1951219512195124, 2.5, 0.1829268292682927
49,0.15966796875, -0.0205078125, -0.97412109375, -1.6463414634146343, 1.6463414634146343, 0.0
51,0.1552734375, -0.01806640625, -0.9716796875, -1.3414634146341464, 1.6463414634146343, 0.12195121951219513
53,0.15673828125, -0.0185546875, -0.9619140625, 0.426829268292683, 2.1951219512195124, 0.1829268292682927
55,0.16650390625, -0.017578125, -0.96337890625, 3.1707317073170733, 2.804878048780488, -0.06097560975609757
57,0.16748046875, -0.0263671875, -0.9609375, 3.9024390243902443, 2.8658536585365857, -0.3658536585365854
59,0.16064453125, -0.0322265625, -0.982421875, 2.987804878048781, 1.829268292682927, -0.6097560975609757
61,0.166015625, 0.0068359375, -0.99755859375, 2.5, 0.9756097560975611, 0.12195121951219513
63,0.16064453125, -0.04052734375, -0.97021484375, 5.2439024390243905, 1.3414634146341464, 0.0
65,0.15771484375, -0.0439453125, -0.9599609375, 9.451219512195122, 0.9756097560975611, -0.1829268292682927
67,0.1572265625, -0.0322265625, -0.9375, 17.195121951219512, 4.024390243902439, -2.25609756097561
69,0.1640625, -0.041015625, -0.970703125, 19.26829268292683, 3.9024390243902443, -3.1097560975609757
71,0.16015625, -0.03564453125, -0.98681640625, 19.81707317073171, 3.536585365853659, -0.7926829268292683
73,0.1689453125, -0.05419921875, -0.99267578125, 17.439024390243905, 3.353658536585366, -0.48780487804878053
75,0.1611328125, -0.10986328125, -0.96630859375, 12.439024390243903, 1.4634146341463417, 2.1951219512195124
77,0.16064453125, -0.07177734375, -0.95703125, 14.451219512195124, 2.1951219512195124, -0.1829268292682927
79,0.16259765625, -0.07275390625, -0.955078125, 14.329268292682928, 1.4634146341463417, 1.402439024390244
81,0.16162109375, -0.06884765625, -0.94873046875, 16.28048780487805, 1.0975609756097562, 0.7317073170731708
83,0.14892578125, -0.06982421875, -0.9697265625, 19.75609756097561, 2.8658536585365857, -2.3170731707317076
85,0.16162109375, -0.05126953125, -0.962890625, 19.75609756097561, 2.7439024390243905, -2.378048780487805
87,0.15966796875, -0.09033203125, -0.9716796875, 27.25609756097561, 3.536585365853659, -3.2926829268292686
89,0.1611328125, -0.11279296875, -0.97314453125, 28.475609756097562, 1.2195121951219514, 1.6463414634146343
91,0.162109375, -0.11669921875, -0.9638671875, 29.81707317073171, 1.1585365853658538, 2.6219512195121952
93,0.1669921875, -0.12451171875, -0.955078125, 37.43902439024391, 0.9146341463414634, 2.9268292682926833
95,0.1552734375, -0.13671875, -0.9677734375, 39.81707317073171, 1.4634146341463417, 4.75609756097561
97,0.1611328125, -0.16455078125, -0.984375, 40.73170731707317, 1.4634146341463417, 4.817073170731708
99,0.16064453125, -0.18408203125, -0.96337890625, 39.81707317073171, 2.3170731707317076, 5.365853658536586
101,0.154296875, -0.2421875, -0.96044921875, 42.19512195121951, 2.1951219512195124, 5.121951219512195
103,0.15087890625, -0.2353515625, -0.96923828125, 38.10975609756098, 2.5609756097560976, 4.817073170731708
105,0.17138671875, -0.1474609375, -0.9755859375, 31.76829268292683, 2.073170731707317, 4.817073170731708
107,0.1796875, -0.19921875, -0.94921875, 13.536585365853659, 0.30487804878048785, 6.463414634146342
109,0.17236328125, -0.21533203125, -0.9521484375, 8.841463414634147, 1.8902439024390245, 2.804878048780488
111,0.1630859375, -0.240234375, -0.96533203125, 1.8902439024390245, 1.0365853658536586, 0.12195121951219513
113,0.16357421875, -0.2451171875, -0.95751953125, -1.2804878048780488, 0.9756097560975611, -0.24390243902439027
115,0.1640625, -0.24267578125, -0.96240234375, -5.670731707317073, -0.3658536585365854, -1.2804878048780488
117,0.1591796875, -0.2412109375, -0.96044921875, -11.585365853658537, -2.3170731707317076, -2.9268292682926833
119,0.146484375, -0.23828125, -0.95947265625, -15.609756097560977, -3.2926829268292686, -3.780487804878049
121,0.1474609375, -0.23681640625, -0.95703125, -18.10975609756098, -3.2926829268292686, -3.7195121951219514
123,0.15234375, -0.2236328125, -0.943359375, -18.658536585365855, -2.682926829268293, -4.2682926829268295
125,0.15283203125, -0.21142578125, -0.9462890625, -19.26829268292683, -0.30487804878048785, -5.548780487804878
127,0.158203125, -0.20361328125, -0.95361328125, -22.073170731707318, 1.3414634146341464, -5.548780487804878
129,0.1669921875, -0.20361328125, -0.9677734375, -21.34146341463415, 2.6219512195121952, -9.085365853658537
131,0.16357421875, -0.16015625, -0.96435546875, -22.80487804878049, 4.146341463414634, -10.426829268292684
133,0.15478515625, -0.185546875, -0.95654296875, -28.59756097560976, 1.3414634146341464, -4.085365853658537
135,0.1513671875, -0.14697265625, -0.9521484375, -36.09756097560976, 3.536585365853659, -6.219512195121951
137,0.0224609375, -0.19970703125, -0.970703125, -33.47560975609756, 8.963414634146343, 1.8902439024390245
139,0.2138671875, -0.1435546875, -1.015625, -23.04878048780488, 5.3048780487804885, 4.634146341463415
141,0.1357421875, -0.02197265625, -0.916015625, -21.707317073170735, 6.646341463414635, 0.48780487804878053
143,0.12451171875, -0.1142578125, -0.9794921875, -34.69512195121951, 3.5975609756097566, -3.536585365853659
145,0.17041015625, -0.123046875, -0.97412109375, -24.75609756097561, 0.1829268292682927, -0.5487804878048781
147,0.1630859375, -0.09765625, -0.97021484375, -28.10975609756098, 1.7682926829268295, -0.9756097560975611
149,0.162109375, -0.0947265625, -0.97021484375, -29.146341463414636, 1.9512195121951221, 0.30487804878048785
151,0.16162109375, -0.0712890625, -0.9541015625, -25.426829268292686, -0.30487804878048785, 5.2439024390243905
153,0.162109375, -0.08056640625, -0.95947265625, -22.500000000000004, -1.1585365853658538, 6.2804878048780495
155,0.1640625, -0.07080078125, -0.97998046875, -20.54878048780488, 0.853658536585366, 1.2804878048780488
157,0.16162109375, -0.072265625, -0.96923828125, -17.439024390243905, 1.402439024390244, 1.829268292682927
159,0.15478515625, -0.0654296875, -0.95458984375, -14.756097560975611, 1.2195121951219514, 0.853658536585366
161,0.14306640625, -0.07421875, -0.96875, -12.439024390243903, 1.5853658536585367, 0.0
163,0.1591796875, 0.0126953125, -0.95947265625, -18.719512195121954, -1.707317073170732, 5.0
165,0.2412109375, -0.04736328125, -1.00341796875, -2.378048780487805, 5.670731707317073, -4.085365853658537
167,0.14013671875, -0.04541015625, -0.96337890625, -15.670731707317074, -1.402439024390244, 0.6707317073170732
169,0.1494140625, -0.068359375, -0.97265625, -15.853658536585368, -1.0975609756097562, 0.9756097560975611
171,0.1572265625, -0.0341796875, -0.97265625, -7.01219512195122, 2.25609756097561, -0.30487804878048785
173,0.15478515625, -0.041015625, -0.9638671875, 3.048780487804878, 4.75609756097561, -0.24390243902439027
175,0.16357421875, -0.04052734375, -0.97705078125, 8.902439024390244, 5.487804878048781, -1.3414634146341464
177,0.1669921875, -0.041015625, -0.97265625, 9.695121951219512, 5.914634146341464, -1.7682926829268295
179,0.197265625, -0.02294921875, -0.9638671875, 10.182926829268293, 5.731707317073171, -3.048780487804878
181,0.1611328125, -0.05126953125, -0.9716796875, 12.926829268292684, 7.195121951219513, -0.9756097560975611
183,0.171875, -0.05224609375, -0.96484375, 17.31707317073171, 4.207317073170732, -0.3658536585365854
185,0.1689453125, -0.0595703125, -0.984375, 18.53658536585366, 2.1341463414634148, 0.0
187,0.17919921875, -0.06103515625, -0.994140625, 13.353658536585368, 2.8658536585365857, -0.426829268292683
189,0.16064453125, -0.07080078125, -0.99853515625, -3.780487804878049, -1.5853658536585367, -2.1951219512195124
191,0.1494140625, -0.08642578125, -0.94140625, -3.658536585365854, -3.1097560975609757, -2.1341463414634148
193,0.1591796875, -0.0849609375, -0.943359375, -0.5487804878048781, -2.073170731707317, -1.4634146341463417
195,0.1689453125, -0.07666015625, -0.94091796875, 10.426829268292684, -0.12195121951219513, -0.853658536585366
197,0.14990234375, -0.09033203125, -0.94873046875, 14.390243902439027, 0.426829268292683, -0.1829268292682927
199,0.162109375, -0.08349609375, -0.97412109375, 15.975609756097562, 0.7926829268292683, 0.6097560975609757
201,0.1640625, -0.08544921875, -0.97705078125, 14.878048780487806, 1.3414634146341464, 0.853658536585366
203,0.16552734375, -0.07958984375, -0.97802734375, 15.487804878048783, 0.12195121951219513, 1.0975609756097562
205,0.15625, -0.0986328125, -0.97802734375, 2.987804878048781, -1.2804878048780488, -1.3414634146341464
207,0.154296875, -0.1005859375, -0.978515625, -2.9268292682926833, 0.6097560975609757, -5.2439024390243905
209,0.1611328125, -0.10498046875, -0.9775390625, -1.5853658536585367, 0.30487804878048785, -6.463414634146342
211,0.1572265625, -0.10498046875, -0.96875, -0.24390243902439027, 0.24390243902439027, -7.621951219512196
213,0.15185546875, -0.11279296875, -0.96435546875, 1.402439024390244, 1.5853658536585367, -8.536585365853659
215,0.1494140625, -0.11083984375, -0.9609375, 1.8902439024390245, 2.1951219512195124, -6.646341463414635
217,0.13232421875, -0.0830078125, -0.94970703125, 2.804878048780488, 3.048780487804878, -3.414634146341464
219,0.1513671875, -0.09619140625, -0.96337890625, 4.085365853658537, 3.048780487804878, 0.0
221,0.1591796875, -0.09619140625, -0.96240234375, 3.536585365853659, 3.1097560975609757, 0.0
223,0.15673828125, -0.10009765625, -0.97314453125, 6.219512195121951, 4.634146341463415, 0.48780487804878053
225,0.16015625, -0.10595703125, -0.98291015625, 5.365853658536586, 3.2926829268292686, 0.30487804878048785
227,0.15576171875, -0.107421875, -0.98681640625, 5.975609756097562, 2.1341463414634148, 0.426829268292683
229,0.16650390625, -0.08935546875, -0.982421875, 2.7439024390243905, 2.9268292682926833, -0.3658536585365854
231,0.1611328125, -0.08642578125, -0.9697265625, 2.1341463414634148, 1.2804878048780488, -4.634146341463415
233,0.1640625, -0.1142578125, -0.95556640625, -0.7926829268292683, 2.804878048780488, -4.695121951219512
235,0.15478515625, -0.11669921875, -0.955078125, -1.2195121951219514, 2.5, -3.8414634146341466
237,0.1630859375, -0.099609375, -0.9853515625, -8.963414634146343, 2.378048780487805, 0.9756097560975611
239,0.162109375, -0.09521484375, -0.98486328125, -10.24390243902439, 2.073170731707317, 0.7317073170731708
241,0.166015625, -0.0908203125, -0.9794921875, -8.719512195121952, 2.073170731707317, -0.30487804878048785
243,0.16650390625, -0.09033203125, -0.97412109375, -14.146341463414636, 2.378048780487805, 1.5853658536585367
245,0.166015625, -0.087890625, -0.97265625, -14.939024390243905, 3.1707317073170733, -0.5487804878048781
247,0.115234375, -0.13623046875, -0.939453125, -15.609756097560977, 5.731707317073171, 2.6219512195121952
249,0.18603515625, -0.08154296875, -0.9658203125, -13.963414634146343, 2.0121951219512195, -1.5853658536585367
251,0.1787109375, -0.08642578125, -0.97705078125, -15.243902439024392, 1.7682926829268295, -3.048780487804878
253,0.1533203125, -0.07568359375, -0.99658203125, -18.719512195121954, 1.2195121951219514, -2.9268292682926833
255,0.1533203125, -0.064453125, -0.98681640625, -19.512195121951223, 1.7682926829268295, -1.6463414634146343
257,0.1611328125, -0.05224609375, -0.955078125, -19.390243902439025, 2.439024390243903, -0.6707317073170732
259,0.1669921875, -0.0615234375, -0.93896484375, -16.951219512195124, 2.6219512195121952, 0.30487804878048785
261,0.1552734375, -0.046875, -0.9306640625, -13.841463414634148, 2.8658536585365857, 0.06097560975609757
263,0.16455078125, -0.04541015625, -0.9599609375, -10.30487804878049, 3.5975609756097566, -0.30487804878048785
265,0.15234375, 0.05859375, -0.97216796875, -11.829268292682928, 2.804878048780488, -0.5487804878048781
267,0.1669921875, -0.0341796875, -0.98828125, -10.487804878048781, 2.1341463414634148, -0.48780487804878053
269,0.1669921875, -0.04736328125, -0.9794921875, -8.902439024390244, 1.0365853658536586, 1.0365853658536586
271,0.1728515625, -0.05029296875, -0.9609375, 2.5609756097560976, 2.378048780487805, 0.48780487804878053
273,0.1728515625, -0.03076171875, -0.96533203125, 9.51219512195122, 3.658536585365854, 0.1829268292682927
275,0.1689453125, -0.02392578125, -0.96875, 9.817073170731708, 3.231707317073171, 0.6097560975609757
277,0.17236328125, -0.04931640625, -0.96484375, 14.02439024390244, 3.536585365853659, 0.24390243902439027
279,0.1689453125, -0.04150390625, -0.96728515625, 19.878048780487806, 2.987804878048781, 1.0365853658536586
281,0.1728515625, -0.0615234375, -0.96923828125, 22.25609756097561, 2.073170731707317, 1.5853658536585367
283,0.1650390625, -0.08642578125, -0.9658203125, 13.963414634146343, 1.0975609756097562, 0.3658536585365854
285,0.1640625, -0.10986328125, -0.9697265625, 11.341463414634147, 0.24390243902439027, 2.3170731707317076
287,0.1708984375, -0.0673828125, -0.990234375, 10.609756097560977, -0.9756097560975611, 1.0975609756097562
289,0.16259765625, -0.064453125, -0.99072265625, 7.317073170731708, -0.48780487804878053, 0.7926829268292683
291,0.15283203125, -0.10302734375, -0.96728515625, 7.743902439024391, -1.829268292682927, 0.1829268292682927
293,0.16259765625, -0.09716796875, -0.96337890625, 9.390243902439025, 0.1829268292682927, -1.402439024390244
295,0.1533203125, -0.0966796875, -0.95361328125, 7.073170731707318, 0.9146341463414634, -0.9146341463414634
297,0.162109375, -0.10498046875, -0.95361328125, 6.036585365853659, 1.2195121951219514, 0.24390243902439027
299,0.16357421875, -0.11181640625, -0.96630859375, 6.463414634146342, 2.378048780487805, -0.12195121951219513
301,0.171875, -0.1005859375, -0.982421875, 7.01219512195122, 2.5, -0.48780487804878053
303,0.1650390625, -0.1162109375, -0.9609375, 3.8414634146341466, 1.3414634146341464, 0.0
305,0.16796875, -0.11572265625, -0.95703125, 2.378048780487805, 2.5609756097560976, -0.24390243902439027
307,0.16064453125, -0.11474609375, -0.95703125, 1.6463414634146343, 2.6219512195121952, -0.06097560975609757
309,0.1650390625, -0.12451171875, -0.96923828125, 0.12195121951219513, 2.804878048780488, 0.06097560975609757
311,0.16796875, -0.1220703125, -0.9833984375, -1.829268292682927, 2.439024390243903, 0.24390243902439027
313,0.16650390625, -0.115234375, -0.9775390625, -2.0121951219512195, 2.439024390243903, -0.06097560975609757
315,0.16162109375, -0.099609375, -0.9755859375, -4.146341463414634, 2.3170731707317076, 0.06097560975609757
317,0.1689453125, -0.1015625, -0.9619140625, -2.987804878048781, 2.3170731707317076, 0.30487804878048785
319,0.16650390625, -0.1103515625, -0.97802734375, -3.4756097560975614, 3.231707317073171, 0.3658536585365854
321,0.1669921875, -0.09375, -0.966796875, -4.207317073170732, 2.9268292682926833, -0.48780487804878053
323,0.16455078125, -0.10107421875, -0.9580078125, -4.939024390243903, 2.5609756097560976, -0.48780487804878053
325,0.1611328125, -0.1123046875, -0.95166015625, -4.573170731707317, 1.9512195121951221, -0.5487804878048781
327,0.16259765625, -0.10693359375, -0.958984375, -3.2926829268292686, 3.7195121951219514, -0.7926829268292683
329,0.16845703125, -0.11181640625, -0.97509765625, -3.536585365853659, 5.365853658536586, 0.7926829268292683
331,0.17138671875, -0.10400390625, -0.97607421875, -3.658536585365854, 4.939024390243903, 0.7317073170731708
333,0.171875, -0.11474609375, -0.97509765625, -8.719512195121952, 3.963414634146342, 1.402439024390244
335,0.17333984375, -0.1083984375, -0.9697265625, -10.609756097560977, 4.146341463414634, 1.7682926829268295
337,0.17333984375, -0.0986328125, -0.95458984375, -12.073170731707318, 4.390243902439025, 2.439024390243903
339,0.1650390625, -0.083984375, -0.962890625, -12.01219512195122, 4.024390243902439, 1.707317073170732
341,0.17236328125, -0.087890625, -0.97412109375, -11.951219512195124, 3.1707317073170733, 0.9756097560975611
343,0.17626953125, -0.0859375, -0.9755859375, -13.109756097560977, 3.1097560975609757, 1.0365853658536586
345,0.181640625, -0.07958984375, -0.98291015625, -15.121951219512196, 3.1097560975609757, 1.524390243902439
347,0.1669921875, -0.06396484375, -0.9794921875, -16.646341463414636, -0.6707317073170732, 5.182926829268293
349,0.1689453125, -0.05224609375, -0.9658203125, -16.463414634146343, -1.0975609756097562, 5.121951219512195
351,0.173828125, -0.0673828125, -0.955078125, -15.853658536585368, -0.24390243902439027, 5.731707317073171
353,0.17822265625, -0.07568359375, -0.95947265625, -12.378048780487806, 0.426829268292683, 4.817073170731708
355,0.16943359375, -0.05859375, -0.97216796875, -2.9268292682926833, 2.5, 1.524390243902439
357,0.16748046875, -0.060546875, -0.98876953125, -2.5609756097560976, 2.3170731707317076, -0.30487804878048785
359,0.16552734375, -0.07421875, -0.97412109375, -3.658536585365854, 2.1951219512195124, -1.0365853658536586
361,0.1669921875, -0.0849609375, -0.97509765625, -2.073170731707317, 1.829268292682927, -1.2195121951219514
363,0.16357421875, -0.05322265625, -0.97021484375, 2.3170731707317076, 3.414634146341464, -2.5
365,0.1689453125, -0.03955078125, -0.9697265625, 1.829268292682927, 2.3170731707317076, -1.2804878048780488
367,0.1748046875, -0.0693359375, -0.9677734375, 4.146341463414634, 1.2195121951219514, -0.853658536585366
369,0.17138671875, -0.07861328125, -0.96435546875, 7.560975609756098, 1.2195121951219514, -0.3658536585365854
371,0.1669921875, -0.06884765625, -0.95654296875, 9.146341463414634, 0.853658536585366, 0.3658536585365854
373,0.16552734375, -0.07421875, -0.95458984375, 9.26829268292683, 0.24390243902439027, 0.426829268292683
375,0.16650390625, -0.06298828125, -0.97412109375, 10.670731707317074, 1.2195121951219514, -0.06097560975609757
377,0.15869140625, -0.064453125, -0.97509765625, 10.548780487804878, 0.7926829268292683, -1.402439024390244
379,0.16455078125, -0.072265625, -0.97265625, 10.792682926829269, 1.0975609756097562, -2.1341463414634148
381,0.173828125, -0.08642578125, -0.96533203125, 11.28048780487805, 0.6097560975609757, -2.3170731707317076
383,0.18359375, -0.109375, -0.97265625, 9.146341463414634, 1.7682926829268295, 0.30487804878048785
385,0.181640625, -0.1083984375, -0.9599609375, 5.914634146341464, 3.048780487804878, 1.0365853658536586
387,0.16748046875, -0.09423828125, -0.96923828125, 4.2682926829268295, 3.658536585365854, 1.4634146341463417
389,0.15380859375, -0.05859375, -0.99072265625, -3.231707317073171, 1.1585365853658538, -0.1829268292682927
391,0.1669921875, -0.09765625, -0.93701171875, 0.06097560975609757, 2.5609756097560976, -0.426829268292683
393,0.17041015625, -0.09033203125, -0.9853515625, 0.12195121951219513, 1.2804878048780488, 0.0
395,0.162109375, -0.09521484375, -0.98779296875, -1.2804878048780488, 1.5853658536585367, 0.12195121951219513
397,0.15869140625, -0.095703125, -0.9794921875, -0.7317073170731708, 1.2804878048780488, -0.12195121951219513
399,0.16259765625, -0.09326171875, -0.9609375, -1.0365853658536586, 2.1341463414634148, -0.6097560975609757
401,0.17626953125, -0.09765625, -0.95947265625, -1.524390243902439, 2.8658536585365857, -0.30487804878048785
403,0.171875, -0.08203125, -0.9755859375, -3.536585365853659, 3.658536585365854, -0.12195121951219513
405,0.1728515625, -0.08447265625, -0.9765625, -5.365853658536586, 4.146341463414634, 0.3658536585365854
407,0.1669921875, -0.07958984375, -0.96435546875, -5.426829268292684, 3.7195121951219514, -0.12195121951219513
409,0.1669921875, -0.08203125, -0.95166015625, -5.670731707317073, 4.634146341463415, 0.5487804878048781
411,0.16650390625, -0.0888671875, -0.96044921875, -2.804878048780488, 4.75609756097561, 0.5487804878048781
413,0.17041015625, -0.09521484375, -0.97412109375, -2.439024390243903, 4.75609756097561, 0.6097560975609757
415,0.1708984375, -0.08544921875, -0.9853515625, -3.1097560975609757, 5.060975609756098, 0.3658536585365854
417,0.17626953125, -0.091796875, -0.9765625, -4.146341463414634, 4.024390243902439, 0.7317073170731708
419,0.1728515625, -0.09423828125, -0.9755859375, -5.3048780487804885, 3.048780487804878, 1.402439024390244
421,0.1748046875, -0.0888671875, -0.96484375, -6.52439024390244, 4.024390243902439, 1.6463414634146343
423,0.171875, -0.080078125, -0.958984375, -5.2439024390243905, 3.963414634146342, 1.829268292682927
425,0.1845703125, -0.07080078125, -0.98291015625, -7.134146341463415, 3.5975609756097566, 0.7926829268292683
427,0.1826171875, -0.0615234375, -0.97705078125, -5.670731707317073, 1.2804878048780488, 0.06097560975609757
429,0.17578125, -0.099609375, -0.95263671875, -7.743902439024391, 1.1585365853658538, 1.4634146341463417
431,0.1865234375, -0.060546875, -0.9697265625, -6.097560975609756, 1.0975609756097562, 1.1585365853658538
433,0.17138671875, -0.068359375, -0.96630859375, -2.1951219512195124, 0.6097560975609757, 0.9756097560975611
435,0.17041015625, -0.06005859375, -0.96875, -0.6707317073170732, -0.06097560975609757, 0.426829268292683
437,0.169921875, -0.06591796875, -0.974609375, -0.06097560975609757, 0.6707317073170732, 0.426829268292683
439,0.17333984375, -0.0693359375, -0.9736328125, 3.536585365853659, 1.402439024390244, -0.7317073170731708
441,0.1748046875, -0.07080078125, -0.974609375, 2.5, 1.2804878048780488, -0.30487804878048785
443,0.169921875, -0.06591796875, -0.966796875, 1.4634146341463417, 1.707317073170732, -0.5487804878048781
445,0.1748046875, -0.06982421875, -0.966796875, 1.2195121951219514, 1.9512195121951221, -0.6097560975609757
447,0.17333984375, -0.07470703125, -0.96923828125, 1.402439024390244, 1.9512195121951221, -0.7317073170731708
449,0.17578125, -0.056640625, -0.96533203125, 1.2195121951219514, 0.7926829268292683, -0.426829268292683
451,0.1875, -0.048828125, -0.9814453125, -3.780487804878049, -2.378048780487805, -1.0975609756097562
453,0.17822265625, -0.07568359375, -0.98974609375, 3.5975609756097566, 0.6707317073170732, -0.7926829268292683
455,0.173828125, -0.0654296875, -0.97216796875, 4.146341463414634, 0.7926829268292683, -0.6707317073170732
457,0.17041015625, -0.07763671875, -0.96533203125, 4.939024390243903, 0.9756097560975611, -0.6097560975609757
459,0.1748046875, -0.0703125, -0.958984375, 5.487804878048781, 1.0365853658536586, -0.48780487804878053
461,0.1611328125, -0.07763671875, -0.96533203125, 6.097560975609756, -0.7317073170731708, -0.30487804878048785
463,0.17041015625, -0.08349609375, -0.96240234375, 6.585365853658537, -0.6097560975609757, -1.2195121951219514
465,0.16650390625, -0.08642578125, -0.95654296875, 5.365853658536586, 0.48780487804878053, -1.2195121951219514
467,0.16845703125, -0.0673828125, -0.9580078125, 2.6219512195121952, 0.48780487804878053, -0.6097560975609757
469,0.16796875, -0.07861328125, -0.97705078125, 0.7926829268292683, 1.524390243902439, -0.9756097560975611
471,0.17333984375, -0.09130859375, -0.99072265625, 1.4634146341463417, 0.9146341463414634, -0.7926829268292683
473,0.17529296875, -0.09228515625, -0.9990234375, 1.5853658536585367, 0.7926829268292683, -0.6097560975609757
475,0.169921875, -0.09326171875, -0.9677734375, 0.12195121951219513, 1.402439024390244, 0.30487804878048785
477,0.1591796875, -0.1025390625, -0.94140625, 2.0121951219512195, 0.6707317073170732, -0.1829268292682927
479,0.16064453125, -0.10595703125, -0.9404296875, 2.3170731707317076, 1.0365853658536586, -0.6097560975609757
481,0.17041015625, -0.09619140625, -0.94775390625, 4.573170731707317, 2.0121951219512195, -1.2195121951219514
483,0.17333984375, -0.11083984375, -0.98583984375, 6.951219512195123, 1.2195121951219514, -0.5487804878048781
485,0.16943359375, -0.111328125, -0.99853515625, 7.560975609756098, 1.402439024390244, -0.6097560975609757
487,0.15087890625, -0.09619140625, -0.9990234375, 5.2439024390243905, 1.2804878048780488, 0.3658536585365854
489,0.15869140625, -0.09765625, -0.970703125, 4.51219512195122, 0.7317073170731708, 0.7317073170731708
491,0.1533203125, -0.09130859375, -0.9580078125, 3.536585365853659, 1.0975609756097562, -0.1829268292682927
493,0.17431640625, -0.1064453125, -0.97705078125, 1.2195121951219514, 1.402439024390244, 0.30487804878048785
495,0.16650390625, -0.10400390625, -0.97021484375, 0.24390243902439027, 1.2804878048780488, 0.5487804878048781
497,0.16552734375, -0.1044921875, -0.96923828125, -2.073170731707317, 3.963414634146342, 0.48780487804878053
499,0.1630859375, -0.1015625, -0.97314453125, -3.9024390243902443, 4.329268292682928, 0.0
501,0.16357421875, -0.103515625, -0.9755859375, -4.390243902439025, 3.414634146341464, -0.24390243902439027
503,0.171875, -0.10107421875, -0.9697265625, -7.195121951219513, 3.7195121951219514, 0.7317073170731708
505,0.1650390625, -0.10400390625, -0.97119140625, -8.719512195121952, 3.5975609756097566, 1.6463414634146343
507,0.16162109375, -0.09814453125, -0.96142578125, -8.292682926829269, 3.7195121951219514, 1.5853658536585367
509,0.1669921875, -0.10546875, -0.96044921875, -4.817073170731708, 3.9024390243902443, 1.0975609756097562
511,0.16650390625, -0.0947265625, -0.958984375, -5.0, 3.4756097560975614, 1.0365853658536586
513,0.166015625, -0.08837890625, -0.96533203125, -5.609756097560976, 3.658536585365854, 0.7317073170731708
515,0.173828125, -0.0947265625, -0.97314453125, -5.426829268292684, 4.024390243902439, 0.24390243902439027
517,0.17138671875, -0.09326171875, -0.97509765625, -3.8414634146341466, 3.5975609756097566, 0.12195121951219513
519,0.1640625, -0.0927734375, -0.96142578125, -3.353658536585366, 3.048780487804878, 0.0
521,0.17138671875, -0.083984375, -0.96044921875, -3.4756097560975614, 2.987804878048781, 0.24390243902439027
523,0.17138671875, -0.0859375, -0.96435546875, -3.4756097560975614, 2.7439024390243905, 0.12195121951219513
525,0.173828125, -0.08154296875, -0.97119140625, -5.365853658536586, 2.6219512195121952, 0.5487804878048781
527,0.16552734375, -0.07568359375, -0.97021484375, -4.2682926829268295, 3.1097560975609757, 0.3658536585365854
529,0.16943359375, -0.0908203125, -0.9599609375, -2.0121951219512195, 2.804878048780488, 0.12195121951219513
531,0.17822265625, -0.080078125, -0.96630859375, -0.7926829268292683, 3.1707317073170733, -0.3658536585365854
533,0.17529296875, -0.07275390625, -0.97021484375, 0.5487804878048781, 1.707317073170732, 0.6707317073170732
535,0.17578125, -0.08251953125, -0.96826171875, 1.4634146341463417, -0.1829268292682927, 0.426829268292683
537,0.169921875, -0.0849609375, -0.95166015625, 2.5609756097560976, -0.6707317073170732, 0.24390243902439027
539,0.17626953125, -0.09521484375, -0.9482421875, 6.158536585365854, -1.0975609756097562, 0.06097560975609757
541,0.17041015625, -0.0830078125, -0.97509765625, 12.439024390243903, 0.0, -0.1829268292682927
543,0.1708984375, -0.08251953125, -0.98193359375, 11.646341463414634, 0.12195121951219513, -0.48780487804878053
545,0.17333984375, -0.1044921875, -0.97607421875, 10.365853658536587, 0.24390243902439027, -0.30487804878048785
547,0.17626953125, -0.10400390625, -0.97412109375, 9.146341463414634, 0.12195121951219513, -0.24390243902439027
549,0.1669921875, -0.107421875, -0.94140625, 10.487804878048781, 0.5487804878048781, 0.06097560975609757
551,0.1923828125, -0.11083984375, -0.93896484375, 7.926829268292684, -1.7682926829268295, -0.5487804878048781
553,0.15771484375, -0.10595703125, -0.953125, 11.463414634146343, -0.3658536585365854, -0.24390243902439027
555,0.16015625, -0.11865234375, -0.9833984375, 7.134146341463415, 0.426829268292683, -1.4634146341463417
557,0.1630859375, -0.12255859375, -0.9765625, 2.8658536585365857, -1.0365853658536586, -0.9756097560975611
559,0.16064453125, -0.12841796875, -0.9697265625, 5.182926829268293, 0.12195121951219513, -0.5487804878048781
561,0.166015625, -0.13525390625, -0.9775390625, 3.4756097560975614, 4.390243902439025, 0.1829268292682927
563,0.1650390625, -0.13818359375, -0.978515625, -3.658536585365854, 2.5609756097560976, 0.6097560975609757
565,0.158203125, -0.13720703125, -0.9580078125, -5.3048780487804885, 2.439024390243903, 0.6097560975609757
567,0.166015625, -0.13720703125, -0.9453125, -3.5975609756097566, 2.073170731707317, 0.3658536585365854
569,0.16796875, -0.1337890625, -0.95166015625, 0.12195121951219513, 3.7195121951219514, 0.48780487804878053
571,0.16552734375, -0.134765625, -0.970703125, 3.353658536585366, 3.9024390243902443, 0.5487804878048781
573,0.16796875, -0.13330078125, -0.97900390625, 3.353658536585366, 4.024390243902439, 0.30487804878048785
575,0.16748046875, -0.134765625, -0.97216796875, 0.24390243902439027, 2.682926829268293, 0.30487804878048785
577,0.166015625, -0.13671875, -0.95849609375, -4.939024390243903, 2.3170731707317076, 0.6707317073170732
579,0.15966796875, -0.1240234375, -0.9501953125, -8.353658536585366, 2.1951219512195124, -0.06097560975609757
581,0.16259765625, -0.12255859375, -0.95068359375, -7.134146341463415, 2.1341463414634148, -0.6097560975609757
583,0.1728515625, -0.1328125, -0.9755859375, -5.2439024390243905, 2.5609756097560976, -1.0975609756097562
585,0.17041015625, -0.12451171875, -0.9716796875, -4.695121951219512, 3.353658536585366, -0.9146341463414634
587,0.16748046875, -0.12353515625, -0.97412109375, -4.634146341463415, 3.414634146341464, -0.6097560975609757
589,0.16650390625, -0.1220703125, -0.97607421875, -5.609756097560976, 3.2926829268292686, 0.0
591,0.16845703125, -0.13232421875, -0.9619140625, -9.207317073170733, 4.878048780487806, -0.6097560975609757
593,0.1689453125, -0.12353515625, -0.95703125, -13.475609756097562, 7.073170731707318, -0.426829268292683
595,0.1640625, -0.11572265625, -0.95849609375, -15.182926829268293, 7.621951219512196, -0.1829268292682927
597,0.16845703125, -0.10693359375, -0.96923828125, -17.5609756097561, 7.073170731707318, 0.06097560975609757
599,0.1708984375, -0.099609375, -0.94970703125, -10.426829268292684, 4.146341463414634, 0.5487804878048781
601,0.17041015625, -0.1025390625, -0.94775390625, -6.829268292682928, 4.146341463414634, 0.6097560975609757
603,0.138671875, -0.06640625, -0.96142578125, -7.500000000000001, 4.573170731707317, 4.939024390243903
605,0.18359375, -0.09765625, -0.9775390625, 0.426829268292683, 3.5975609756097566, 2.6219512195121952
607,0.1796875, -0.0908203125, -0.9736328125, -0.1829268292682927, 2.804878048780488, 2.378048780487805
609,0.1806640625, -0.09619140625, -0.9658203125, -0.6707317073170732, 2.0121951219512195, 1.7682926829268295
611,0.17919921875, -0.08837890625, -0.9619140625, -0.30487804878048785, 1.829268292682927, 0.426829268292683
613,0.177734375, -0.0927734375, -0.96533203125, 0.12195121951219513, 1.7682926829268295, -0.48780487804878053
615,0.17431640625, -0.08984375, -0.9697265625, 0.426829268292683, 1.402439024390244, -1.4634146341463417
617,0.17919921875, -0.08984375, -0.9638671875, -0.1829268292682927, 1.0365853658536586, -1.2804878048780488
619,0.17431640625, -0.10205078125, -0.96337890625, 3.8414634146341466, 0.9756097560975611, -1.524390243902439
621,0.17822265625, -0.1005859375, -0.97216796875, 6.158536585365854, 0.9756097560975611, -2.073170731707317
623,0.17724609375, -0.10107421875, -0.9775390625, 7.500000000000001, 1.5853658536585367, -2.804878048780488
625,0.20068359375, -0.07177734375, -0.9150390625, -0.9146341463414634, -2.439024390243903, -2.1341463414634148
627,0.173828125, -0.1064453125, -0.9599609375, 5.670731707317073, -0.1829268292682927, -0.6097560975609757
629,0.17578125, -0.11669921875, -0.96240234375, 7.621951219512196, -1.1585365853658538, -0.48780487804878053
631,0.16748046875, -0.111328125, -0.96630859375, 7.682926829268293, -1.6463414634146343, -0.9146341463414634
633,0.1708984375, -0.1015625, -0.9716796875, 7.560975609756098, -1.524390243902439, -0.853658536585366
635,0.16748046875, -0.095703125, -0.9833984375, 7.073170731707318, -0.9756097560975611, -2.1951219512195124
637,0.1708984375, -0.09716796875, -0.982421875, 6.7682926829268295, 0.1829268292682927, -2.9268292682926833
639,0.1826171875, -0.12646484375, -0.9619140625, 4.146341463414634, 1.8902439024390245, -1.524390243902439
641,0.177734375, -0.12744140625, -0.9765625, 4.024390243902439, 2.5, -1.524390243902439
643,0.1728515625, -0.1240234375, -0.97998046875, 3.414634146341464, 3.353658536585366, -1.3414634146341464
645,0.1689453125, -0.1416015625, -0.96728515625, 3.5975609756097566, 3.1097560975609757, -0.48780487804878053
647,0.1669921875, -0.15234375, -0.94580078125, 4.207317073170732, 3.231707317073171, -0.48780487804878053
649,0.16845703125, -0.1513671875, -0.94580078125, 6.2804878048780495, 2.5, 0.1829268292682927
651,0.16455078125, -0.142578125, -0.958984375, 5.609756097560976, 1.5853658536585367, -0.30487804878048785
653,0.16943359375, -0.13427734375, -0.9755859375, -0.48780487804878053, -0.426829268292683, 0.7926829268292683
655,0.17138671875, -0.12744140625, -0.96044921875, 0.0, 0.30487804878048785, 0.7317073170731708
657,0.17041015625, -0.12060546875, -0.95654296875, -0.7926829268292683, 2.073170731707317, -0.30487804878048785
659,0.17578125, -0.1220703125, -0.9658203125, -2.5, 3.2926829268292686, -0.426829268292683
661,0.18212890625, -0.12646484375, -0.9765625, -5.975609756097562, 4.024390243902439, 0.06097560975609757
663,0.17626953125, -0.1328125, -0.962890625, -6.585365853658537, 3.780487804878049, 0.24390243902439027
665,0.17138671875, -0.13916015625, -0.9560546875, -6.7682926829268295, 3.1707317073170733, 0.6097560975609757
667,0.16552734375, -0.1259765625, -0.9560546875, -6.7682926829268295, 2.7439024390243905, 0.1829268292682927
669,0.17041015625, -0.12890625, -0.97265625, -1.7682926829268295, 3.780487804878049, 0.6097560975609757
671,0.17333984375, -0.123046875, -0.9677734375, -7.926829268292684, 3.658536585365854, 1.1585365853658538
673,0.17626953125, -0.1201171875, -0.95849609375, -8.78048780487805, 3.353658536585366, 1.0365853658536586
675,0.169921875, -0.111328125, -0.9658203125, -9.573170731707318, 3.353658536585366, 0.5487804878048781
677,0.1796875, -0.11474609375, -0.96435546875, -7.987804878048781, 4.024390243902439, 0.6707317073170732
679,0.1796875, -0.11279296875, -0.95703125, -7.073170731707318, 4.329268292682928, 0.6097560975609757
681,0.181640625, -0.107421875, -0.97607421875, -5.731707317073171, 4.573170731707317, 0.426829268292683
683,0.18212890625, -0.10986328125, -0.9716796875, -3.536585365853659, 4.451219512195122, 0.9756097560975611
685,0.15771484375, -0.1474609375, -0.9384765625, -3.048780487804878, 3.963414634146342, 2.804878048780488
687,0.1806640625, -0.1240234375, -0.94580078125, 0.24390243902439027, 2.5, 1.402439024390244
689,0.17529296875, -0.1201171875, -0.94775390625, 2.1951219512195124, 3.414634146341464, 1.3414634146341464
691,0.18212890625, -0.1103515625, -0.95849609375, 3.7195121951219514, 4.207317073170732, 1.829268292682927
693,0.181640625, -0.10498046875, -0.97119140625, 2.439024390243903, 4.451219512195122, 1.8902439024390245
695,0.1806640625, -0.10986328125, -0.98681640625, 0.7926829268292683, 3.658536585365854, 0.9146341463414634
697,0.181640625, -0.11083984375, -0.990234375, 0.30487804878048785, 3.2926829268292686, 0.426829268292683
699,0.18017578125, -0.1171875, -0.9794921875, -1.402439024390244, 2.7439024390243905, -0.48780487804878053
701,0.17822265625, -0.115234375, -0.96484375, -4.329268292682928, 2.5609756097560976, -0.7317073170731708
703,0.17333984375, -0.06982421875, -0.9599609375, 1.402439024390244, 1.0365853658536586, -0.6707317073170732
705,0.18310546875, -0.0966796875, -0.97509765625, 4.329268292682928, 0.48780487804878053, -1.829268292682927
707,0.18798828125, -0.11669921875, -0.974609375, 2.682926829268293, 1.402439024390244, -1.1585365853658538
709,0.18994140625, -0.11376953125, -0.958984375, 3.231707317073171, 0.5487804878048781, -0.12195121951219513
711,0.185546875, -0.11572265625, -0.9541015625, 2.3170731707317076, 1.0975609756097562, 0.30487804878048785
713,0.17822265625, -0.12744140625, -0.9423828125, 6.52439024390244, 0.9756097560975611, 0.3658536585365854
715,0.19384765625, -0.13720703125, -0.94970703125, 8.475609756097562, 1.1585365853658538, 0.30487804878048785
717,0.1875, -0.1396484375, -0.95849609375, 10.30487804878049, 1.0365853658536586, 0.9146341463414634
719,0.18017578125, -0.13818359375, -0.96337890625, 10.121951219512196, 2.25609756097561, 1.3414634146341464
721,0.1865234375, -0.1259765625, -0.97314453125, 8.048780487804878, 3.2926829268292686, 1.6463414634146343
723,0.1728515625, -0.11669921875, -0.978515625, 4.75609756097561, 3.1707317073170733, 0.9146341463414634
725,0.17529296875, -0.12060546875, -0.97119140625, 3.658536585365854, 3.231707317073171, 0.426829268292683
727,0.17822265625, -0.10986328125, -0.96484375, 2.378048780487805, 2.8658536585365857, -1.402439024390244
729,0.1796875, -0.12353515625, -0.95703125, 0.6097560975609757, 4.024390243902439, -2.0121951219512195
731,0.1875, -0.1298828125, -0.9619140625, 0.7317073170731708, 3.780487804878049, -1.7682926829268295
733,0.18310546875, -0.125, -0.9560546875, -1.2804878048780488, 1.3414634146341464, 0.12195121951219513
735,0.18212890625, -0.130859375, -0.96533203125, 0.0, 1.2804878048780488, 0.48780487804878053
737,0.18359375, -0.138671875, -0.97021484375, 1.524390243902439, 1.402439024390244, 0.7926829268292683
739,0.1826171875, -0.1416015625, -0.95361328125, 5.914634146341464, 2.6219512195121952, 1.2195121951219514
741,0.18701171875, -0.14501953125, -0.958984375, 1.524390243902439, 3.1707317073170733, 1.0365853658536586
743,0.1796875, -0.1337890625, -0.96484375, -0.48780487804878053, 1.5853658536585367, 0.6707317073170732
745,0.1826171875, -0.12744140625, -0.96533203125, -1.0365853658536586, 0.853658536585366, 0.5487804878048781
747,0.185546875, -0.12939453125, -0.96044921875, -1.829268292682927, 1.524390243902439, 0.426829268292683
749,0.18505859375, -0.130859375, -0.9599609375, -2.073170731707317, 1.4634146341463417, -0.24390243902439027
751,0.18310546875, -0.12841796875, -0.962890625, -3.8414634146341466, 2.8658536585365857, -0.48780487804878053
753,0.185546875, -0.13330078125, -0.96533203125, -6.951219512195123, 3.1707317073170733, -0.12195121951219513
755,0.18408203125, -0.1337890625, -0.9609375, -7.317073170731708, 3.2926829268292686, -0.1829268292682927
757,0.18798828125, -0.14208984375, -0.970703125, -6.7682926829268295, 2.987804878048781, 0.24390243902439027
759,0.18798828125, -0.14111328125, -0.95458984375, -5.121951219512195, 2.5, 0.6707317073170732
761,0.1845703125, -0.1416015625, -0.958984375, -4.451219512195122, 3.1097560975609757, 0.6097560975609757
763,0.1826171875, -0.1328125, -0.96337890625, -2.8658536585365857, 2.682926829268293, 1.2804878048780488
765,0.181640625, -0.13525390625, -0.96533203125, -3.658536585365854, 3.1707317073170733, 1.1585365853658538
767,0.1826171875, -0.11865234375, -0.958984375, -7.621951219512196, 2.8658536585365857, 0.30487804878048785
769,0.19287109375, -0.1181640625, -0.9619140625, -10.853658536585368, 3.780487804878049, 1.402439024390244
771,0.18359375, -0.12451171875, -0.96142578125, -8.170731707317074, 3.048780487804878, 2.0121951219512195
773,0.18310546875, -0.1142578125, -0.95703125, -6.341463414634147, 3.7195121951219514, 1.0365853658536586
775,0.1845703125, -0.12109375, -0.95849609375, -0.853658536585366, 2.8658536585365857, 0.5487804878048781
777,0.18896484375, -0.1064453125, -0.9560546875, 0.12195121951219513, 3.231707317073171, 0.3658536585365854
779,0.1884765625, -0.1171875, -0.96435546875, 1.402439024390244, 3.353658536585366, 1.707317073170732
781,0.1806640625, -0.12451171875, -0.96484375, 4.51219512195122, 3.4756097560975614, 0.30487804878048785
783,0.1875, -0.125, -0.95751953125, 0.426829268292683, 1.524390243902439, 0.426829268292683
785,0.18310546875, -0.12646484375, -0.96875, -2.3170731707317076, 0.6707317073170732, 0.30487804878048785
787,0.1845703125, -0.130859375, -0.96826171875, -2.804878048780488, 0.6097560975609757, 0.3658536585365854
789,0.185546875, -0.12158203125, -0.96240234375, 1.8902439024390245, 1.0975609756097562, -0.6097560975609757
791,0.1845703125, -0.12890625, -0.9619140625, 2.1341463414634148, 0.853658536585366, -0.9146341463414634
793,0.1845703125, -0.13134765625, -0.96337890625, 2.439024390243903, 0.6097560975609757, -0.7926829268292683
795,0.19189453125, -0.12353515625, -0.96533203125, 0.9146341463414634, 1.1585365853658538, -0.5487804878048781
797,0.1875, -0.12451171875, -0.958984375, 0.30487804878048785, 1.2195121951219514, 0.06097560975609757
799,0.185546875, -0.12255859375, -0.95166015625, 1.0975609756097562, 1.0365853658536586, 0.3658536585365854
801,0.17578125, -0.130859375, -0.95849609375, 1.6463414634146343, 0.24390243902439027, 0.0
803,0.1826171875, -0.13671875, -0.95068359375, 3.353658536585366, 0.12195121951219513, -0.06097560975609757
805,0.18408203125, -0.14404296875, -0.9638671875, 8.719512195121952, 0.9146341463414634, 0.06097560975609757
807,0.1787109375, -0.13330078125, -0.97119140625, 3.780487804878049, 1.0975609756097562, -0.12195121951219513
809,0.18359375, -0.14404296875, -0.9580078125, -1.4634146341463417, 0.7317073170731708, 0.06097560975609757
811,0.18017578125, -0.1376953125, -0.95654296875, 0.5487804878048781, 3.1097560975609757, 0.24390243902439027
813,0.18115234375, -0.140625, -0.95263671875, 2.1341463414634148, 3.231707317073171, 0.12195121951219513
815,0.1845703125, -0.13818359375, -0.96484375, 1.707317073170732, 3.414634146341464, -0.1829268292682927
817,0.1748046875, -0.13818359375, -0.9658203125, 1.2804878048780488, 2.682926829268293, -0.5487804878048781
819,0.18017578125, -0.14404296875, -0.96875, 1.402439024390244, 1.9512195121951221, -1.402439024390244
821,0.1884765625, -0.1484375, -0.95703125, -2.3170731707317076, 2.9268292682926833, -0.3658536585365854
823,0.18359375, -0.1494140625, -0.95068359375, -3.1097560975609757, 3.5975609756097566, -0.06097560975609757
825,0.1875, -0.1484375, -0.94091796875, -1.9512195121951221, 4.146341463414634, 0.48780487804878053
827,0.18408203125, -0.15234375, -0.953125, -1.2195121951219514, 4.024390243902439, 0.7317073170731708
829,0.18505859375, -0.1513671875, -0.9677734375, 1.7682926829268295, 2.8658536585365857, 0.9146341463414634
831,0.1845703125, -0.146484375, -0.98046875, 1.829268292682927, 2.682926829268293, 0.6097560975609757
833,0.1865234375, -0.14306640625, -0.966796875, 2.7439024390243905, 2.3170731707317076, 0.7926829268292683
835,0.17724609375, -0.140625, -0.95751953125, 2.804878048780488, 0.6097560975609757, 0.5487804878048781
837,0.1787109375, -0.14013671875, -0.95751953125, 2.0121951219512195, 1.3414634146341464, 0.12195121951219513
839,0.17822265625, -0.1396484375, -0.95361328125, 0.30487804878048785, 1.6463414634146343, -0.30487804878048785
841,0.18408203125, -0.14306640625, -0.95556640625, -3.353658536585366, 0.0, -0.3658536585365854
843,0.19140625, -0.1533203125, -0.9560546875, -4.024390243902439, 3.5975609756097566, -0.7317073170731708
845,0.1806640625, -0.1435546875, -0.96630859375, -6.097560975609756, 3.414634146341464, 0.12195121951219513
847,0.17919921875, -0.14013671875, -0.96630859375, -7.073170731707318, 2.7439024390243905, -0.3658536585365854
849,0.1904296875, -0.13671875, -0.95849609375, -9.695121951219512, 2.9268292682926833, 0.30487804878048785
851,0.18505859375, -0.13330078125, -0.95654296875, -10.24390243902439, 3.9024390243902443, -0.1829268292682927
853,0.18701171875, -0.1240234375, -0.9677734375, -12.621951219512196, 3.780487804878049, 0.12195121951219513
855,0.18994140625, -0.13037109375, -0.962890625, -9.51219512195122, 3.353658536585366, 0.24390243902439027
857,0.18505859375, -0.1240234375, -0.9521484375, -9.02439024390244, 3.7195121951219514, -0.426829268292683
859,0.18505859375, -0.12109375, -0.95166015625, -8.231707317073171, 3.658536585365854, -0.7317073170731708
861,0.18505859375, -0.1201171875, -0.95361328125, -7.926829268292684, 3.8414634146341466, -0.9146341463414634
863,0.189453125, -0.109375, -0.95703125, -7.560975609756098, 2.804878048780488, -0.9146341463414634
865,0.19189453125, -0.11669921875, -0.96533203125, -7.500000000000001, 2.1951219512195124, -1.0365853658536586
867,0.189453125, -0.1201171875, -0.9638671875, -7.25609756097561, 1.7682926829268295, -0.6707317073170732
869,0.1953125, -0.1259765625, -0.9599609375, -3.658536585365854, 1.4634146341463417, -0.5487804878048781
871,0.19873046875, -0.11962890625, -0.96142578125, -0.853658536585366, 3.048780487804878, -0.5487804878048781
873,0.18310546875, -0.1220703125, -0.951171875, -1.0975609756097562, 2.25609756097561, 0.9756097560975611
875,0.185546875, -0.115234375, -0.9638671875, 2.9268292682926833, 1.0975609756097562, -0.3658536585365854
877,0.18896484375, -0.1103515625, -0.96875, 3.414634146341464, 0.7926829268292683, -0.853658536585366
879,0.19091796875, -0.1171875, -0.96630859375, 0.9756097560975611, 0.9146341463414634, 0.12195121951219513
881,0.1904296875, -0.1181640625, -0.966796875, 2.0121951219512195, 1.3414634146341464, 0.426829268292683
883,0.18896484375, -0.1123046875, -0.96484375, 0.7926829268292683, 1.0365853658536586, 1.0975609756097562
885,0.1865234375, -0.107421875, -0.96533203125, -0.426829268292683, 0.7926829268292683, 0.9756097560975611
887,0.18017578125, -0.1064453125, -0.9599609375, -0.7317073170731708, 0.30487804878048785, 0.6707317073170732
889,0.17431640625, -0.10400390625, -0.9609375, 2.0121951219512195, 1.707317073170732, 0.24390243902439027
891,0.19140625, -0.12939453125, -0.96240234375, 5.060975609756098, 1.3414634146341464, -1.1585365853658538
893,0.18310546875, -0.119140625, -0.970703125, 6.219512195121951, 2.3170731707317076, -1.524390243902439
895,0.18603515625, -0.12646484375, -0.95458984375, 5.487804878048781, 1.0365853658536586, -0.48780487804878053
897,0.1845703125, -0.1298828125, -0.95751953125, 9.02439024390244, 0.9756097560975611, -0.12195121951219513
899,0.18359375, -0.13818359375, -0.95458984375, 8.353658536585366, -0.06097560975609757, 1.2804878048780488
901,0.18115234375, -0.14013671875, -0.95947265625, 7.378048780487806, -0.12195121951219513, 1.2804878048780488
903,0.17822265625, -0.1318359375, -0.95556640625, 5.426829268292684, 0.06097560975609757, 0.9756097560975611
905,0.1796875, -0.14404296875, -0.96533203125, 7.621951219512196, -1.3414634146341464, 1.2804878048780488
907,0.18115234375, -0.14013671875, -0.97119140625, 6.219512195121951, 1.4634146341463417, 1.0975609756097562
909,0.18212890625, -0.13623046875, -0.966796875, 6.646341463414635, 0.853658536585366, 1.1585365853658538
911,0.18115234375, -0.134765625, -0.9658203125, 4.817073170731708, 0.7926829268292683, 0.9146341463414634
913,0.1826171875, -0.142578125, -0.9521484375, 3.8414634146341466, 0.7926829268292683, 0.30487804878048785
915,0.17578125, -0.140625, -0.95166015625, 0.6707317073170732, 1.7682926829268295, -0.06097560975609757
917,0.18994140625, -0.15234375, -0.9658203125, -2.073170731707317, 0.7926829268292683, 0.6707317073170732
919,0.1796875, -0.15380859375, -0.97021484375, -4.75609756097561, 1.1585365853658538, 0.3658536585365854
921,0.171875, -0.1416015625, -0.9453125, -0.9756097560975611, 1.8902439024390245, -0.12195121951219513
923,0.1806640625, -0.142578125, -0.96435546875, -1.2195121951219514, 4.085365853658537, 0.1829268292682927
925,0.1826171875, -0.14404296875, -0.96630859375, -5.0, 4.024390243902439, -0.12195121951219513
927,0.18408203125, -0.142578125, -0.96728515625, -7.682926829268293, 2.5, 0.12195121951219513
929,0.1865234375, -0.14306640625, -0.96142578125, -7.682926829268293, 2.6219512195121952, 0.12195121951219513
931,0.18310546875, -0.134765625, -0.95068359375, -6.158536585365854, 1.7682926829268295, 0.426829268292683
933,0.18408203125, -0.13818359375, -0.9501953125, -5.853658536585367, 1.829268292682927, 0.30487804878048785
935,0.1826171875, -0.13525390625, -0.95654296875, -1.2804878048780488, 1.8902439024390245, 0.0
937,0.18017578125, -0.13330078125, -0.95947265625, -0.6707317073170732, 2.5609756097560976, -0.1829268292682927
939,0.18310546875, -0.1396484375, -0.95849609375, -0.06097560975609757, 2.5, 0.1829268292682927
941,0.18505859375, -0.140625, -0.958984375, -1.402439024390244, 3.1097560975609757, 0.1829268292682927
943,0.17822265625, -0.13720703125, -0.955078125, -1.524390243902439, 2.987804878048781, -0.12195121951219513
945,0.1865234375, -0.13134765625, -0.96337890625, -3.414634146341464, 2.682926829268293, -0.12195121951219513
947,0.18310546875, -0.1337890625, -0.96044921875, -4.2682926829268295, 1.8902439024390245, 0.1829268292682927
949,0.18603515625, -0.12890625, -0.95263671875, -2.1951219512195124, 2.987804878048781, 0.426829268292683
951,0.18115234375, -0.13525390625, -0.9697265625, -0.9756097560975611, 2.6219512195121952, 0.30487804878048785
953,0.177734375, -0.134765625, -0.978515625, -2.9268292682926833, 3.1707317073170733, 0.1829268292682927
955,0.18212890625, -0.13818359375, -0.9638671875, -3.2926829268292686, 2.8658536585365857, 0.48780487804878053
957,0.1826171875, -0.13134765625, -0.96337890625, -3.9024390243902443, 2.25609756097561, 0.5487804878048781
959,0.18017578125, -0.12451171875, -0.95849609375, -3.8414634146341466, 2.682926829268293, 0.3658536585365854
961,0.18359375, -0.1240234375, -0.96044921875, -4.024390243902439, 2.682926829268293, 0.06097560975609757
963,0.1845703125, -0.1259765625, -0.96337890625, -3.658536585365854, 3.1097560975609757, -0.12195121951219513
965,0.1865234375, -0.1181640625, -0.96826171875, -4.329268292682928, 3.353658536585366, -0.12195121951219513
967,0.1865234375, -0.1220703125, -0.96728515625, -4.817073170731708, 3.9024390243902443, -0.1829268292682927
969,0.1884765625, -0.12548828125, -0.97021484375, -5.731707317073171, 3.231707317073171, -0.1829268292682927
971,0.18701171875, -0.1259765625, -0.96240234375, -6.7682926829268295, 3.048780487804878, -0.1829268292682927
973,0.18359375, -0.1171875, -0.95751953125, -4.634146341463415, 2.804878048780488, 0.0
975,0.18359375, -0.12255859375, -0.9609375, -2.378048780487805, 2.1341463414634148, -0.06097560975609757
977,0.1923828125, -0.1220703125, -0.95556640625, -0.1829268292682927, 2.0121951219512195, -0.30487804878048785
979,0.1865234375, -0.12451171875, -0.96142578125, 0.9756097560975611, 2.1341463414634148, -0.1829268292682927
981,0.18603515625, -0.12255859375, -0.958984375, 1.6463414634146343, 1.7682926829268295, 0.426829268292683
983,0.181640625, -0.12939453125, -0.96142578125, 2.3170731707317076, 1.402439024390244, 0.9756097560975611
985,0.18603515625, -0.13232421875, -0.96337890625, 2.378048780487805, 1.1585365853658538, 0.7926829268292683
987,0.18701171875, -0.12841796875, -0.96337890625, 1.8902439024390245, 1.402439024390244, 0.7926829268292683
989,0.1904296875, -0.12255859375, -0.9716796875, 1.4634146341463417, 1.0975609756097562, 0.6707317073170732
991,0.18359375, -0.12109375, -0.96484375, 1.0365853658536586, 1.0975609756097562, 0.426829268292683
993,0.1806640625, -0.11669921875, -0.96533203125, 1.0365853658536586, 1.5853658536585367, -0.24390243902439027
995,0.1845703125, -0.1171875, -0.96337890625, 0.7926829268292683, 1.3414634146341464, -0.06097560975609757
997,0.18798828125, -0.13623046875, -0.96923828125, 0.12195121951219513, 1.0975609756097562, -0.1829268292682927
999,0.18701171875, -0.13134765625, -0.97412109375, 0.9756097560975611, 0.7317073170731708, -0.30487804878048785
1001,0.18505859375, -0.134765625, -0.96142578125, 0.426829268292683, 1.1585365853658538, -0.6097560975609757
1003,0.18896484375, -0.138671875, -0.95947265625, 1.0365853658536586, 1.4634146341463417, -0.6707317073170732
1005,0.19189453125, -0.138671875, -0.94873046875, 1.3414634146341464, 1.3414634146341464, 0.1829268292682927
1007,0.1884765625, -0.14013671875, -0.94482421875, 1.2195121951219514, 1.5853658536585367, 0.5487804878048781
1009,0.18115234375, -0.13232421875, -0.9462890625, 2.1951219512195124, 2.073170731707317, 1.0365853658536586
1011,0.18359375, -0.1357421875, -0.96435546875, 3.780487804878049, 2.9268292682926833, 1.4634146341463417
1013,0.18408203125, -0.13232421875, -0.97265625, 3.231707317073171, 2.8658536585365857, 1.707317073170732
1015,0.17626953125, -0.12890625, -0.97802734375, 2.378048780487805, 1.707317073170732, 1.3414634146341464
1017,0.1787109375, -0.13427734375, -0.9736328125, 1.524390243902439, 1.524390243902439, 0.6707317073170732
1019,0.1767578125, -0.1318359375, -0.966796875, 0.853658536585366, 1.402439024390244, 0.426829268292683
1021,0.18212890625, -0.13330078125, -0.9482421875, -0.6707317073170732, 2.0121951219512195, 0.3658536585365854
1023,0.181640625, -0.13720703125, -0.94775390625, -0.30487804878048785, 2.1341463414634148, -0.1829268292682927
1025,0.181640625, -0.13427734375, -0.94970703125, -1.524390243902439, 3.1097560975609757, -0.24390243902439027
1027,0.18359375, -0.134765625, -0.94921875, -1.402439024390244, 3.231707317073171, -0.1829268292682927
1029,0.1875, -0.14013671875, -0.97314453125, -1.1585365853658538, 2.9268292682926833, -0.1829268292682927
1031,0.17919921875, -0.142578125, -0.9736328125, -1.9512195121951221, 2.804878048780488, -0.12195121951219513
1033,0.18505859375, -0.1396484375, -0.9541015625, -1.524390243902439, 2.5, -0.06097560975609757
1035,0.1875, -0.13525390625, -0.96240234375, -2.25609756097561, 1.5853658536585367, 0.3658536585365854
1037,0.19091796875, -0.12451171875, -0.9697265625, -1.829268292682927, 4.451219512195122, -0.30487804878048785
1039,0.189453125, -0.1318359375, -0.96923828125, -1.2195121951219514, 4.695121951219512, -0.3658536585365854
1041,0.18798828125, -0.140625, -0.9697265625, -1.9512195121951221, 3.7195121951219514, 0.30487804878048785
1043,0.1845703125, -0.12451171875, -0.95068359375, -4.207317073170732, 3.1097560975609757, 0.5487804878048781
1045,0.181640625, -0.12744140625, -0.9423828125, -1.4634146341463417, 3.658536585365854, 1.6463414634146343
1047,0.19677734375, -0.1396484375, -0.97705078125, -2.0121951219512195, 3.7195121951219514, 0.426829268292683
1049,0.19384765625, -0.13525390625, -0.9580078125, -5.548780487804878, 3.353658536585366, 0.7317073170731708
1051,0.18798828125, -0.126953125, -0.95947265625, -6.341463414634147, 2.5609756097560976, 0.6707317073170732
1053,0.19580078125, -0.12353515625, -0.94970703125, -5.731707317073171, 3.353658536585366, 1.2804878048780488
1055,0.189453125, -0.13037109375, -0.95703125, -5.487804878048781, 3.1097560975609757, 0.7317073170731708
1057,0.20068359375, -0.12548828125, -0.96923828125, -2.439024390243903, 2.1951219512195124, -0.06097560975609757
1059,0.1953125, -0.12255859375, -0.9658203125, -3.231707317073171, 2.6219512195121952, -0.12195121951219513
1061,0.181640625, -0.10498046875, -0.9619140625, -2.682926829268293, 2.073170731707317, 0.5487804878048781
1063,0.18310546875, -0.11572265625, -0.96337890625, -2.987804878048781, 1.829268292682927, 0.1829268292682927
1065,0.19482421875, -0.12841796875, -0.96484375, -2.9268292682926833, 1.4634146341463417, 0.3658536585365854
1067,0.1884765625, -0.119140625, -0.96337890625, -2.987804878048781, 1.8902439024390245, -0.1829268292682927
1069,0.18896484375, -0.11767578125, -0.9580078125, -1.9512195121951221, 1.707317073170732, -0.24390243902439027
1071,0.1826171875, -0.10009765625, -0.97265625, 0.9146341463414634, 2.25609756097561, -0.24390243902439027
1073,0.1845703125, -0.107421875, -0.9609375, -0.6707317073170732, 1.8902439024390245, -0.06097560975609757
1075,0.1904296875, -0.11474609375, -0.95166015625, -2.5609756097560976, 1.524390243902439, 0.0
1077,0.1953125, -0.11865234375, -0.96240234375, -2.439024390243903, 1.5853658536585367, 0.0
1079,0.19482421875, -0.1171875, -0.97314453125, -1.707317073170732, 2.1951219512195124, 0.0
1081,0.1865234375, -0.1142578125, -0.96728515625, -0.5487804878048781, 2.3170731707317076, -0.06097560975609757
1083,0.19091796875, -0.1162109375, -0.95751953125, 2.1951219512195124, 2.3170731707317076, 0.5487804878048781
1085,0.1884765625, -0.1181640625, -0.9609375, 2.804878048780488, 1.7682926829268295, 0.5487804878048781
1087,0.1884765625, -0.12255859375, -0.96044921875, 3.048780487804878, 1.4634146341463417, 0.5487804878048781
1089,0.18701171875, -0.12255859375, -0.9677734375, 1.0975609756097562, 1.3414634146341464, 0.48780487804878053
1091,0.18408203125, -0.13427734375, -0.9599609375, 1.1585365853658538, 1.2195121951219514, 0.06097560975609757
1093,0.1884765625, -0.13671875, -0.9609375, 2.073170731707317, 1.402439024390244, 0.1829268292682927
1095,0.19384765625, -0.11669921875, -0.9716796875, 2.3170731707317076, 2.073170731707317, 0.30487804878048785
1097,0.18310546875, -0.12646484375, -0.97314453125, 1.3414634146341464, 1.9512195121951221, 0.30487804878048785
1099,0.1953125, -0.126953125, -0.9580078125, 0.06097560975609757, 2.25609756097561, 1.0365853658536586
1101,0.19482421875, -0.12646484375, -0.947265625, -0.06097560975609757, 2.1951219512195124, 1.524390243902439
1103,0.19140625, -0.12353515625, -0.97265625, -2.073170731707317, 0.426829268292683, -0.7926829268292683
1105,0.19140625, -0.1220703125, -0.974609375, -2.073170731707317, 0.48780487804878053, -0.9756097560975611
1107,0.18798828125, -0.12744140625, -0.94970703125, 1.0365853658536586, 0.30487804878048785, 0.7926829268292683
1109,0.1787109375, -0.12451171875, -0.9404296875, 1.2195121951219514, 1.2804878048780488, 0.9146341463414634
1111,0.18359375, -0.123046875, -0.93701171875, 1.4634146341463417, 1.6463414634146343, 0.7926829268292683
1113,0.18603515625, -0.13671875, -0.9580078125, 2.682926829268293, 1.2195121951219514, 0.3658536585365854
1115,0.1962890625, -0.1435546875, -0.97705078125, 2.3170731707317076, 0.426829268292683, 0.24390243902439027
1117,0.1884765625, -0.1416015625, -0.97314453125, 3.2926829268292686, 0.9756097560975611, 0.426829268292683
1119,0.1826171875, -0.13525390625, -0.9609375, 2.7439024390243905, 1.0975609756097562, 0.426829268292683
1121,0.18115234375, -0.13720703125, -0.95263671875, 3.231707317073171, 0.9146341463414634, 0.0
1123,0.1767578125, -0.12939453125, -0.95751953125, 2.1951219512195124, 1.6463414634146343, -0.426829268292683
1125,0.18115234375, -0.12744140625, -0.9638671875, 0.9756097560975611, 1.1585365853658538, -0.12195121951219513
1127,0.1884765625, -0.125, -0.97607421875, -1.524390243902439, 1.4634146341463417, -0.1829268292682927
1129,0.1904296875, -0.126953125, -0.958984375, -2.987804878048781, 0.426829268292683, 0.6707317073170732
1131,0.1865234375, -0.17041015625, -0.95556640625, -1.707317073170732, 1.5853658536585367, 0.5487804878048781
1133,0.16650390625, -0.10986328125, -0.9677734375, -0.30487804878048785, 2.1341463414634148, -0.6097560975609757
1135,0.18212890625, -0.14013671875, -0.94921875, -1.2195121951219514, 1.829268292682927, -0.3658536585365854
1137,0.1884765625, -0.138671875, -0.96044921875, 0.48780487804878053, 2.5, 0.1829268292682927
1139,0.18896484375, -0.1337890625, -0.970703125, 0.9146341463414634, 2.8658536585365857, 0.7317073170731708
1141,0.18359375, -0.12744140625, -0.95556640625, -3.780487804878049, 3.048780487804878, 0.30487804878048785
1143,0.193359375, -0.12841796875, -0.95947265625, -3.8414634146341466, 2.987804878048781, 0.6097560975609757
1145,0.18798828125, -0.13623046875, -0.95654296875, -2.9268292682926833, 3.2926829268292686, 0.24390243902439027
1147,0.18798828125, -0.13623046875, -0.9580078125, -1.7682926829268295, 3.1097560975609757, 0.12195121951219513
1149,0.18115234375, -0.12060546875, -0.9599609375, -2.5609756097560976, 3.8414634146341466, -0.5487804878048781
1151,0.189453125, -0.1337890625, -0.9638671875, -3.963414634146342, 2.6219512195121952, 0.12195121951219513
1153,0.19580078125, -0.13427734375, -0.95849609375, -4.207317073170732, 2.378048780487805, 0.6707317073170732
1155,0.18359375, -0.1376953125, -0.9638671875, -3.414634146341464, 1.7682926829268295, 0.3658536585365854
1157,0.18701171875, -0.13134765625, -0.96337890625, -3.1707317073170733, 1.8902439024390245, 0.5487804878048781
1159,0.18505859375, -0.125, -0.96337890625, -1.4634146341463417, 1.829268292682927, 0.06097560975609757
1161,0.18408203125, -0.1142578125, -0.96142578125, -1.707317073170732, 2.1951219512195124, 0.0
1163,0.18603515625, -0.12109375, -0.955078125, -0.6097560975609757, 1.6463414634146343, -0.12195121951219513
1165,0.19384765625, -0.1240234375, -0.95703125, -0.7926829268292683, 2.25609756097561, 0.06097560975609757
1167,0.1923828125, -0.12548828125, -0.96337890625, -1.1585365853658538, 2.804878048780488, -0.06097560975609757
1169,0.1884765625, -0.12109375, -0.9755859375, -3.8414634146341466, 1.3414634146341464, -0.30487804878048785
1171,0.1875, -0.11669921875, -0.96240234375, -3.9024390243902443, 1.7682926829268295, -0.3658536585365854
1173,0.1884765625, -0.12744140625, -0.94970703125, -1.7682926829268295, 1.8902439024390245, -0.24390243902439027
1175,0.18701171875, -0.12890625, -0.97802734375, 2.804878048780488, 1.2195121951219514, 0.1829268292682927
1177,0.1806640625, -0.1220703125, -0.96044921875, -2.9268292682926833, 0.9756097560975611, 0.30487804878048785
1179,0.1953125, -0.1533203125, -0.95849609375, 4.329268292682928, 2.9268292682926833, -1.6463414634146343
1181,0.18310546875, -0.10107421875, -0.96044921875, 5.487804878048781, 3.536585365853659, -1.6463414634146343
1183,0.1796875, -0.09130859375, -0.986328125, 10.426829268292684, 3.414634146341464, -5.365853658536586
1185,0.18310546875, -0.087890625, -0.935546875, -1.1585365853658538, -1.1585365853658538, -0.12195121951219513
1187,0.19580078125, -0.15673828125, -0.9853515625, 1.8902439024390245, 1.2195121951219514, -0.9146341463414634
1189,0.18408203125, -0.12939453125, -0.96875, 1.3414634146341464, 3.1097560975609757, -0.426829268292683
1191,0.1884765625, -0.12646484375, -0.966796875, 0.7317073170731708, 0.24390243902439027, -0.12195121951219513
1193,0.1875, -0.1484375, -0.94482421875, 4.573170731707317, 2.1951219512195124, -0.24390243902439027
1195,0.1787109375, -0.14501953125, -0.9365234375, 5.365853658536586, 1.524390243902439, -0.1829268292682927
1197,0.181640625, -0.146484375, -0.9404296875, 4.451219512195122, 1.524390243902439, 0.6707317073170732
1199,0.1826171875, -0.1416015625, -0.970703125, 2.682926829268293, 1.829268292682927, 0.6097560975609757
1201,0.1826171875, -0.1416015625, -0.97607421875, 1.7682926829268295, 2.25609756097561, 0.6097560975609757
1203,0.1826171875, -0.140625, -0.97607421875, 2.378048780487805, 2.1341463414634148, 0.24390243902439027
1205,0.1826171875, -0.13427734375, -0.96826171875, 2.1951219512195124, 2.378048780487805, 0.24390243902439027
1207,0.18017578125, -0.138671875, -0.94970703125, 0.06097560975609757, 2.1341463414634148, 0.1829268292682927
1209,0.181640625, -0.1328125, -0.94677734375, -1.0365853658536586, 2.25609756097561, 0.30487804878048785
1211,0.1845703125, -0.12744140625, -0.9619140625, -3.5975609756097566, 3.4756097560975614, 0.3658536585365854
1213,0.18212890625, -0.14111328125, -0.94482421875, 1.3414634146341464, 2.804878048780488, 0.30487804878048785
1215,0.18359375, -0.142578125, -0.94287109375, 1.0365853658536586, 2.987804878048781, -0.06097560975609757
1217,0.189453125, -0.1455078125, -0.9697265625, 0.5487804878048781, 3.414634146341464, -0.06097560975609757
1219,0.1875, -0.1435546875, -0.97314453125, -0.30487804878048785, 2.9268292682926833, 0.06097560975609757
1221,0.1875, -0.14990234375, -0.97021484375, -1.4634146341463417, 2.8658536585365857, 0.12195121951219513
1223,0.1923828125, -0.14599609375, -0.9599609375, -2.7439024390243905, 3.2926829268292686, 0.5487804878048781
1225,0.18212890625, -0.1435546875, -0.94384765625, -3.414634146341464, 2.682926829268293, 0.426829268292683
1227,0.1845703125, -0.14794921875, -0.9462890625, -2.9268292682926833, 2.439024390243903, 0.30487804878048785
1229,0.185546875, -0.14306640625, -0.9609375, -1.6463414634146343, 2.682926829268293, 0.24390243902439027
1231,0.193359375, -0.14501953125, -0.96044921875, -1.402439024390244, 3.231707317073171, 0.30487804878048785
1233,0.19140625, -0.14453125, -0.966796875, -1.829268292682927, 2.378048780487805, 0.853658536585366
1235,0.17578125, -0.13330078125, -0.95947265625, -2.5, 1.524390243902439, 0.853658536585366
1237,0.189453125, -0.1298828125, -0.95947265625, -2.9268292682926833, 2.9268292682926833, 0.426829268292683
1239,0.1923828125, -0.13427734375, -0.95751953125, -2.8658536585365857, 2.682926829268293, 0.6707317073170732
1241,0.1806640625, -0.1298828125, -0.96484375, -2.1341463414634148, 2.5, 0.48780487804878053
1243,0.18505859375, -0.13623046875, -0.9609375, -2.8658536585365857, 2.6219512195121952, 0.30487804878048785
1245,0.1884765625, -0.1318359375, -0.9609375, -3.231707317073171, 3.780487804878049, 0.6707317073170732
1247,0.1923828125, -0.1220703125, -0.95361328125, -5.548780487804878, 2.5609756097560976, 0.6707317073170732
1249,0.185546875, -0.13037109375, -0.96142578125, -6.341463414634147, 2.6219512195121952, 1.0365853658536586
1251,0.1875, -0.12353515625, -0.96142578125, -5.0, 2.7439024390243905, 1.0365853658536586
1253,0.1845703125, -0.12646484375, -0.9619140625, -2.682926829268293, 3.2926829268292686, 0.12195121951219513
1255,0.19287109375, -0.1318359375, -0.9599609375, -2.3170731707317076, 3.353658536585366, 0.0
1257,0.19384765625, -0.13037109375, -0.95703125, -0.06097560975609757, 2.1951219512195124, -0.06097560975609757
1259,0.18896484375, -0.1298828125, -0.953125, 0.24390243902439027, 1.8902439024390245, -0.06097560975609757
1261,0.1904296875, -0.1318359375, -0.96240234375, 0.6707317073170732, 1.707317073170732, -0.3658536585365854
1263,0.1904296875, -0.1337890625, -0.96484375, 0.0, 1.402439024390244, -0.5487804878048781
1265,0.197265625, -0.138671875, -0.96533203125, -1.2195121951219514, 1.5853658536585367, 0.30487804878048785
1267,0.19677734375, -0.1376953125, -0.96240234375, -1.3414634146341464, 1.5853658536585367, 0.9756097560975611
1269,0.181640625, -0.14013671875, -0.95947265625, 0.12195121951219513, 1.4634146341463417, 0.6707317073170732
1271,0.18603515625, -0.134765625, -0.95654296875, 0.30487804878048785, 1.9512195121951221, 0.24390243902439027
1273,0.1884765625, -0.13525390625, -0.9560546875, -0.1829268292682927, 1.9512195121951221, 0.48780487804878053
1275,0.18896484375, -0.140625, -0.9560546875, -1.402439024390244, 2.5, 1.2195121951219514
1277,0.18408203125, -0.13720703125, -0.96142578125, -1.1585365853658538, 2.1951219512195124, 1.1585365853658538
1279,0.18505859375, -0.1220703125, -0.9677734375, -0.30487804878048785, 2.7439024390243905, 1.0365853658536586
1281,0.18798828125, -0.115234375, -0.97265625, -0.7926829268292683, 2.5609756097560976, 0.7317073170731708
1283,0.1904296875, -0.11376953125, -0.97705078125, -2.3170731707317076, 2.3170731707317076, 0.3658536585365854
1285,0.185546875, -0.10498046875, -0.9619140625, -3.5975609756097566, 2.073170731707317, -0.3658536585365854
1287,0.18359375, -0.111328125, -0.95458984375, -2.25609756097561, 0.7317073170731708, -1.2195121951219514
1289,0.19775390625, -0.13134765625, -0.96142578125, 1.8902439024390245, 1.2195121951219514, -1.9512195121951221
1291,0.19287109375, -0.126953125, -0.958984375, 1.402439024390244, 0.48780487804878053, -0.853658536585366
1293,0.1943359375, -0.1396484375, -0.95068359375, 2.3170731707317076, 0.0, -1.1585365853658538
1295,0.19384765625, -0.154296875, -0.9501953125, 4.2682926829268295, 1.8902439024390245, -0.12195121951219513
1297,0.1923828125, -0.14794921875, -0.94873046875, 4.207317073170732, 1.829268292682927, 0.12195121951219513
1299,0.1796875, -0.1396484375, -0.9443359375, 1.829268292682927, 1.1585365853658538, 0.6707317073170732
1301,0.18212890625, -0.14208984375, -0.95751953125, 0.6707317073170732, 2.1341463414634148, 0.24390243902439027
1303,0.18359375, -0.14501953125, -0.97021484375, -0.30487804878048785, 2.378048780487805, 0.30487804878048785
1305,0.18310546875, -0.1328125, -0.9716796875, -3.658536585365854, 2.804878048780488, 1.524390243902439
1307,0.1865234375, -0.130859375, -0.94482421875, -3.048780487804878, 3.4756097560975614, 0.48780487804878053
1309,0.18896484375, -0.1259765625, -0.9609375, -1.8902439024390245, 2.5, 0.0
1311,0.19482421875, -0.13037109375, -0.9677734375, 0.1829268292682927, 2.25609756097561, 0.06097560975609757
1313,0.18603515625, -0.130859375, -0.95849609375, -0.12195121951219513, 1.829268292682927, -0.12195121951219513
1315,0.19140625, -0.1416015625, -0.94970703125, -0.48780487804878053, 2.1951219512195124, 0.24390243902439027
1317,0.18896484375, -0.14013671875, -0.97265625, -2.3170731707317076, 2.3170731707317076, 0.3658536585365854
1319,0.18115234375, -0.1455078125, -0.95068359375, -2.987804878048781, 2.987804878048781, 1.4634146341463417
1321,0.18115234375, -0.1416015625, -0.947265625, -3.9024390243902443, 3.1707317073170733, 1.1585365853658538
1323,0.18359375, -0.1396484375, -0.9423828125, -5.487804878048781, 3.1097560975609757, 0.6097560975609757
1325,0.18994140625, -0.1337890625, -0.94775390625, -5.853658536585367, 3.536585365853659, 0.5487804878048781
1327,0.189453125, -0.13525390625, -0.96728515625, -6.036585365853659, 3.7195121951219514, 0.6097560975609757
1329,0.1904296875, -0.13330078125, -0.9619140625, -5.609756097560976, 4.024390243902439, 0.48780487804878053
1331,0.189453125, -0.13330078125, -0.95751953125, -4.939024390243903, 3.8414634146341466, 0.12195121951219513
1333,0.1884765625, -0.13720703125, -0.955078125, -3.963414634146342, 3.1097560975609757, 0.48780487804878053
1335,0.1904296875, -0.13037109375, -0.951171875, -4.51219512195122, 3.414634146341464, 0.6707317073170732
1337,0.19384765625, -0.12939453125, -0.95947265625, -4.634146341463415, 3.536585365853659, 0.7926829268292683
1339,0.19384765625, -0.12451171875, -0.96240234375, -5.731707317073171, 3.963414634146342, 1.1585365853658538
1341,0.19677734375, -0.12744140625, -0.96044921875, -5.0, 3.536585365853659, 1.0975609756097562
1343,0.19287109375, -0.119140625, -0.95458984375, -3.353658536585366, 2.378048780487805, 0.7926829268292683
1345,0.1875, -0.11181640625, -0.96728515625, -4.51219512195122, 2.6219512195121952, 0.48780487804878053
1347,0.193359375, -0.115234375, -0.96240234375, -4.329268292682928, 2.25609756097561, 0.3658536585365854
1349,0.193359375, -0.1162109375, -0.96142578125, -3.5975609756097566, 2.25609756097561, 0.7317073170731708
1351,0.19580078125, -0.11376953125, -0.9599609375, -3.2926829268292686, 1.1585365853658538, -0.9756097560975611
1353,0.18994140625, -0.11083984375, -0.95263671875, -1.5853658536585367, 0.6097560975609757, -0.6707317073170732
1355,0.19091796875, -0.115234375, -0.9560546875, -1.7682926829268295, 0.5487804878048781, -0.853658536585366
1357,0.19384765625, -0.1171875, -0.951171875, 0.48780487804878053, 2.0121951219512195, -0.1829268292682927
1359,0.19091796875, -0.1171875, -0.95361328125, 1.4634146341463417, 1.5853658536585367, -0.12195121951219513
1361,0.1943359375, -0.11962890625, -0.9560546875, 1.2195121951219514, 1.2195121951219514, -0.12195121951219513
1363,0.1953125, -0.12353515625, -0.96728515625, 0.7317073170731708, -0.30487804878048785, 0.7317073170731708
1365,0.189453125, -0.12841796875, -0.96337890625, 0.48780487804878053, -0.3658536585365854, 0.30487804878048785
1367,0.19091796875, -0.12890625, -0.96240234375, 2.5609756097560976, -0.30487804878048785, 0.1829268292682927
1369,0.1767578125, -0.12255859375, -0.962890625, 3.536585365853659, -0.24390243902439027, -0.9756097560975611
1371,0.18505859375, -0.1171875, -0.95703125, 3.5975609756097566, -0.426829268292683, -1.1585365853658538
1373,0.18310546875, -0.1201171875, -0.95947265625, 3.5975609756097566, -0.9756097560975611, -0.7926829268292683
1375,0.1875, -0.1318359375, -0.962890625, 3.4756097560975614, -0.24390243902439027, -0.6707317073170732
1377,0.19580078125, -0.138671875, -0.95703125, 1.7682926829268295, -0.12195121951219513, -0.06097560975609757
1379,0.19921875, -0.13232421875, -0.951171875, 1.5853658536585367, 0.30487804878048785, -0.24390243902439027
1381,0.1923828125, -0.13232421875, -0.95458984375, 2.439024390243903, -0.426829268292683, 0.24390243902439027
1383,0.18798828125, -0.12646484375, -0.96142578125, 2.804878048780488, -0.6707317073170732, 0.6707317073170732
1385,0.18310546875, -0.12841796875, -0.966796875, 4.085365853658537, 1.402439024390244, 0.9146341463414634
1387,0.1826171875, -0.13330078125, -0.97314453125, 2.439024390243903, 1.0975609756097562, 1.3414634146341464
1389,0.1826171875, -0.1337890625, -0.96923828125, 0.6097560975609757, 1.7682926829268295, 1.3414634146341464
1391,0.18115234375, -0.134765625, -0.96923828125, -1.4634146341463417, 1.5853658536585367, 0.853658536585366
1393,0.18212890625, -0.13330078125, -0.95703125, -2.682926829268293, 1.3414634146341464, 0.853658536585366
1395,0.173828125, -0.13427734375, -0.951171875, -2.0121951219512195, 1.0975609756097562, 0.426829268292683
1397,0.17822265625, -0.13232421875, -0.9521484375, -0.6707317073170732, 1.524390243902439, -0.24390243902439027
1399,0.17919921875, -0.13720703125, -0.95263671875, 1.0975609756097562, 2.3170731707317076, 0.06097560975609757
1401,0.1796875, -0.13671875, -0.9619140625, 1.0365853658536586, 2.5, 0.24390243902439027
1403,0.17822265625, -0.13818359375, -0.96240234375, 0.9146341463414634, 2.804878048780488, -0.06097560975609757
1405,0.18212890625, -0.14306640625, -0.97216796875, -0.48780487804878053, 2.25609756097561, 0.06097560975609757
1407,0.1826171875, -0.1396484375, -0.97021484375, -2.3170731707317076, 2.3170731707317076, 0.0
1409,0.181640625, -0.14208984375, -0.9638671875, -2.5609756097560976, 2.073170731707317, 0.0
1411,0.185546875, -0.13720703125, -0.953125, -2.5, 1.9512195121951221, 0.1829268292682927
1413,0.18115234375, -0.13818359375, -0.9482421875, -1.5853658536585367, 2.1951219512195124, 0.24390243902439027
1415,0.1826171875, -0.13720703125, -0.955078125, -1.8902439024390245, 1.829268292682927, 0.426829268292683
1417,0.18408203125, -0.13037109375, -0.96435546875, -2.073170731707317, 2.7439024390243905, 0.30487804878048785
1419,0.1884765625, -0.1318359375, -0.9755859375, -3.414634146341464, 2.25609756097561, 0.12195121951219513
1421,0.181640625, -0.13427734375, -0.953125, -1.9512195121951221, 2.682926829268293, 0.06097560975609757
1423,0.1826171875, -0.13330078125, -0.962890625, -2.0121951219512195, 2.3170731707317076, 0.30487804878048785
1425,0.18603515625, -0.13427734375, -0.9638671875, -3.5975609756097566, 2.8658536585365857, 0.30487804878048785
1427,0.18603515625, -0.13232421875, -0.95751953125, -3.4756097560975614, 2.804878048780488, 0.30487804878048785
1429,0.18408203125, -0.1376953125, -0.96533203125, -4.024390243902439, 2.9268292682926833, 0.1829268292682927
1431,0.17919921875, -0.134765625, -0.96337890625, -4.451219512195122, 2.9268292682926833, 0.06097560975609757
1433,0.181640625, -0.115234375, -0.951171875, -3.658536585365854, 3.1707317073170733, 0.7317073170731708
1435,0.1845703125, -0.12646484375, -0.95556640625, -2.5, 3.658536585365854, 1.0975609756097562
1437,0.18017578125, -0.1201171875, -0.96240234375, -1.2195121951219514, 3.414634146341464, 0.426829268292683
1439,0.19189453125, -0.1220703125, -0.9619140625, -0.7317073170731708, 2.7439024390243905, 0.06097560975609757
1441,0.19091796875, -0.12548828125, -0.9658203125, -0.6707317073170732, 2.6219512195121952, -0.3658536585365854
1443,0.19384765625, -0.1201171875, -0.9677734375, -0.7926829268292683, 3.1097560975609757, -0.426829268292683
1445,0.1962890625, -0.12109375, -0.96728515625, -0.853658536585366, 2.25609756097561, -0.06097560975609757
1447,0.17724609375, -0.11572265625, -0.96240234375, 0.24390243902439027, 0.30487804878048785, -0.30487804878048785
1449,0.1884765625, -0.1318359375, -0.95556640625, 0.1829268292682927, 0.24390243902439027, 0.12195121951219513
1451,0.18798828125, -0.13330078125, -0.951171875, 2.25609756097561, 0.24390243902439027, -0.30487804878048785
1453,0.18212890625, -0.1337890625, -0.95654296875, 1.2804878048780488, 0.7317073170731708, -0.48780487804878053
1455,0.1826171875, -0.13623046875, -0.9677734375, 0.9146341463414634, 1.524390243902439, -0.853658536585366
1457,0.1826171875, -0.12939453125, -0.97119140625, -0.12195121951219513, 1.2804878048780488, -0.48780487804878053
1459,0.18359375, -0.13525390625, -0.953125, -1.524390243902439, 1.707317073170732, -0.426829268292683
1461,0.185546875, -0.134765625, -0.96435546875, 0.5487804878048781, 1.7682926829268295, 0.6707317073170732
1463,0.1826171875, -0.12841796875, -0.962890625, 0.1829268292682927, 1.5853658536585367, 0.30487804878048785
1465,0.1826171875, -0.13232421875, -0.95751953125, 0.24390243902439027, 0.7926829268292683, 0.24390243902439027
1467,0.17919921875, -0.12890625, -0.95947265625, -0.7926829268292683, 1.2804878048780488, -0.30487804878048785
1469,0.1826171875, -0.13525390625, -0.96044921875, -1.0365853658536586, 0.9756097560975611, 0.0
1471,0.1865234375, -0.1328125, -0.95947265625, 0.12195121951219513, 0.7926829268292683, 0.5487804878048781
1473,0.181640625, -0.12744140625, -0.96142578125, 1.402439024390244, 0.7926829268292683, 0.426829268292683
1475,0.17822265625, -0.126953125, -0.97412109375, 4.817073170731708, 0.48780487804878053, -1.1585365853658538
1477,0.17431640625, -0.154296875, -0.9423828125, 2.439024390243903, 2.5, 1.5853658536585367
1479,0.18310546875, -0.13037109375, -0.94580078125, 1.7682926829268295, 2.439024390243903, 1.707317073170732
1481,0.1865234375, -0.13232421875, -0.95849609375, 1.0365853658536586, 2.5, 0.5487804878048781
1483,0.19189453125, -0.13818359375, -0.978515625, 0.7926829268292683, 2.25609756097561, 0.5487804878048781
1485,0.18310546875, -0.12890625, -0.98193359375, 0.06097560975609757, 2.5609756097560976, 0.48780487804878053
1487,0.18212890625, -0.13720703125, -0.9775390625, -0.30487804878048785, 2.6219512195121952, 0.48780487804878053
1489,0.1806640625, -0.13623046875, -0.96533203125, -4.573170731707317, 1.7682926829268295, -0.30487804878048785
1491,0.18310546875, -0.134765625, -0.97509765625, -5.121951219512195, 1.4634146341463417, -0.5487804878048781
1493,0.185546875, -0.13818359375, -0.9736328125, -4.75609756097561, 1.0975609756097562, -0.3658536585365854
1495,0.18701171875, -0.13671875, -0.96044921875, -3.1097560975609757, 1.524390243902439, 0.06097560975609757
1497,0.185546875, -0.1435546875, -0.947265625, -0.9756097560975611, 1.9512195121951221, 0.24390243902439027
1499,0.18115234375, -0.14208984375, -0.9453125, 1.2804878048780488, 2.439024390243903, 0.1829268292682927
1501,0.1796875, -0.14501953125, -0.9501953125, 1.4634146341463417, 2.7439024390243905, 0.30487804878048785
1503,0.18359375, -0.1376953125, -0.9697265625, -1.7682926829268295, 2.1341463414634148, 0.24390243902439027
1505,0.18701171875, -0.1337890625, -0.9609375, -4.573170731707317, 1.524390243902439, 0.48780487804878053
1507,0.1875, -0.134765625, -0.96142578125, -4.817073170731708, 1.1585365853658538, 0.6097560975609757
1509,0.1796875, -0.14013671875, -0.958984375, -4.573170731707317, 1.524390243902439, 0.6097560975609757
1511,0.17431640625, -0.1328125, -0.95166015625, -2.439024390243903, 2.5609756097560976, 0.12195121951219513
1513,0.177734375, -0.1279296875, -0.947265625, -1.707317073170732, 3.414634146341464, 0.1829268292682927
1515,0.177734375, -0.13232421875, -0.953125, -1.2804878048780488, 3.7195121951219514, 0.06097560975609757
1517,0.18701171875, -0.12890625, -0.97607421875, -2.25609756097561, 4.390243902439025, 0.426829268292683
1519,0.1845703125, -0.1328125, -0.990234375, -3.353658536585366, 3.4756097560975614, 0.48780487804878053
1521,0.18896484375, -0.13623046875, -0.98486328125, -3.9024390243902443, 3.048780487804878, 0.48780487804878053
1523,0.18896484375, -0.13134765625, -0.955078125, -4.390243902439025, 2.9268292682926833, 0.853658536585366
1525,0.1875, -0.12744140625, -0.94873046875, -4.207317073170732, 2.439024390243903, 0.6097560975609757
1527,0.18359375, -0.13818359375, -0.947265625, -3.7195121951219514, 2.682926829268293, 0.6707317073170732
1529,0.18505859375, -0.12646484375, -0.955078125, -2.1341463414634148, 2.682926829268293, 0.24390243902439027
1531,0.18408203125, -0.1259765625, -0.95849609375, -1.3414634146341464, 2.6219512195121952, 0.1829268292682927
1533,0.189453125, -0.12939453125, -0.96044921875, -1.5853658536585367, 2.9268292682926833, 0.6707317073170732
1535,0.18701171875, -0.1279296875, -0.96044921875, -3.231707317073171, 2.5, 0.30487804878048785
1537,0.18701171875, -0.126953125, -0.9599609375, -2.987804878048781, 2.439024390243903, 0.1829268292682927
1539,0.18115234375, -0.1220703125, -0.9609375, -3.8414634146341466, 2.1341463414634148, -0.06097560975609757
1541,0.185546875, -0.1298828125, -0.958984375, -4.329268292682928, 1.4634146341463417, -0.06097560975609757
1543,0.1875, -0.1328125, -0.96142578125, -4.146341463414634, 1.524390243902439, 0.0
1545,0.1884765625, -0.1298828125, -0.9599609375, -4.085365853658537, 1.4634146341463417, 0.12195121951219513
1547,0.185546875, -0.12841796875, -0.96630859375, -0.853658536585366, 1.0365853658536586, 0.06097560975609757
1549,0.18115234375, -0.12060546875, -0.95361328125, -0.5487804878048781, 1.5853658536585367, 0.426829268292683
1551,0.1787109375, -0.1181640625, -0.9501953125, -0.48780487804878053, 1.7682926829268295, 0.12195121951219513
1553,0.18359375, -0.1220703125, -0.96337890625, 0.30487804878048785, 2.0121951219512195, -0.48780487804878053
1555,0.1845703125, -0.1220703125, -0.96630859375, -0.7317073170731708, 2.25609756097561, -0.7317073170731708
1557,0.18798828125, -0.12255859375, -0.9697265625, -1.2804878048780488, 1.6463414634146343, -0.5487804878048781
1559,0.19189453125, -0.123046875, -0.95947265625, -1.6463414634146343, 2.1341463414634148, -0.12195121951219513
1561,0.18310546875, -0.13037109375, -0.9560546875, -1.5853658536585367, 1.707317073170732, 0.9146341463414634
1563,0.18603515625, -0.13232421875, -0.95751953125, 2.5609756097560976, 1.7682926829268295, 0.6097560975609757
1565,0.1884765625, -0.12548828125, -0.95751953125, 0.853658536585366, 2.5, 0.426829268292683
1567,0.185546875, -0.12646484375, -0.9716796875, 0.7317073170731708, 1.5853658536585367, 0.06097560975609757
1569,0.1904296875, -0.1318359375, -0.9638671875, 0.426829268292683, 1.402439024390244, -0.6707317073170732
1571,0.19189453125, -0.13330078125, -0.9580078125, 1.2804878048780488, 2.378048780487805, -0.7926829268292683
1573,0.1884765625, -0.13623046875, -0.95166015625, 3.353658536585366, 1.7682926829268295, -0.06097560975609757
1575,0.1826171875, -0.14453125, -0.95947265625, 4.695121951219512, 0.6707317073170732, 0.0
1577,0.185546875, -0.12939453125, -0.955078125, 3.4756097560975614, 2.073170731707317, 0.06097560975609757
1579,0.18115234375, -0.13134765625, -0.962890625, 3.353658536585366, 0.5487804878048781, 0.0
1581,0.18017578125, -0.134765625, -0.96728515625, 1.4634146341463417, 1.3414634146341464, 0.426829268292683
1583,0.18212890625, -0.13232421875, -0.9638671875, 2.1341463414634148, 0.7926829268292683, 0.9146341463414634
1585,0.17626953125, -0.140625, -0.96533203125, 2.0121951219512195, 0.5487804878048781, 1.1585365853658538
1587,0.18212890625, -0.12939453125, -0.95654296875, 1.4634146341463417, 1.3414634146341464, 0.6097560975609757
1589,0.1796875, -0.1318359375, -0.95703125, 1.5853658536585367, 1.524390243902439, 0.48780487804878053
1591,0.1787109375, -0.12548828125, -0.96923828125, -0.06097560975609757, 1.829268292682927, 0.12195121951219513
1593,0.18408203125, -0.134765625, -0.96826171875, -0.6097560975609757, 1.8902439024390245, 0.1829268292682927
1595,0.185546875, -0.1318359375, -0.96484375, -0.7317073170731708, 2.3170731707317076, 0.3658536585365854
1597,0.185546875, -0.13818359375, -0.95458984375, -1.0365853658536586, 2.439024390243903, 0.426829268292683
1599,0.18212890625, -0.1376953125, -0.95263671875, -1.1585365853658538, 2.9268292682926833, 0.48780487804878053
1601,0.18212890625, -0.14599609375, -0.9658203125, -1.7682926829268295, 3.2926829268292686, 0.6097560975609757
1603,0.17919921875, -0.15380859375, -0.95263671875, -0.6097560975609757, 3.5975609756097566, 0.7317073170731708
1605,0.18994140625, -0.13232421875, -0.962890625, -8.902439024390244, 3.8414634146341466, 1.1585365853658538
1607,0.1865234375, -0.1396484375, -0.9599609375, -10.365853658536587, 4.085365853658537, 1.2195121951219514
1609,0.18798828125, -0.11767578125, -0.947265625, -10.792682926829269, 4.024390243902439, 1.0365853658536586
1611,0.18798828125, -0.11669921875, -0.95361328125, -9.329268292682928, 3.414634146341464, 0.48780487804878053
1613,0.19189453125, -0.11083984375, -0.95458984375, -6.097560975609756, 3.1707317073170733, -0.3658536585365854
1615,0.1953125, -0.10986328125, -0.95361328125, -3.353658536585366, 3.1097560975609757, -0.9146341463414634
1617,0.19287109375, -0.11572265625, -0.962890625, -0.48780487804878053, 2.804878048780488, -0.48780487804878053
1619,0.1875, -0.109375, -0.96142578125, 1.2195121951219514, 0.5487804878048781, 0.24390243902439027
1621,0.181640625, -0.1201171875, -0.966796875, 0.48780487804878053, -0.426829268292683, 0.0
1623,0.18408203125, -0.1201171875, -0.96337890625, 0.06097560975609757, -0.5487804878048781, -0.426829268292683
1625,0.18798828125, -0.119140625, -0.96875, -0.12195121951219513, -0.9146341463414634, -0.7317073170731708
1627,0.189453125, -0.125, -0.96875, 0.5487804878048781, -0.9756097560975611, -0.5487804878048781
1629,0.18896484375, -0.12646484375, -0.9658203125, 0.6707317073170732, -0.7317073170731708, -0.5487804878048781
1631,0.1845703125, -0.12158203125, -0.95458984375, 0.6707317073170732, 0.30487804878048785, -1.1585365853658538
1633,0.1787109375, -0.11962890625, -0.9521484375, 1.0975609756097562, 0.12195121951219513, -1.0365853658536586
1635,0.181640625, -0.1220703125, -0.95458984375, -0.5487804878048781, 1.0365853658536586, 0.06097560975609757
1637,0.18359375, -0.1240234375, -0.97021484375, -1.2804878048780488, 2.3170731707317076, 0.48780487804878053
1639,0.17919921875, -0.12255859375, -0.95263671875, 1.524390243902439, 2.439024390243903, -0.48780487804878053
1641,0.1728515625, -0.125, -0.9501953125, 0.5487804878048781, 2.1341463414634148, -0.7926829268292683
1643,0.17919921875, -0.1298828125, -0.94970703125, -0.426829268292683, 2.25609756097561, -0.9146341463414634
1645,0.1845703125, -0.1298828125, -0.9560546875, -1.0365853658536586, 2.5609756097560976, 0.426829268292683
1647,0.18603515625, -0.13134765625, -0.9609375, -1.1585365853658538, 3.1097560975609757, 0.3658536585365854
1649,0.18115234375, -0.13134765625, -0.96337890625, -0.5487804878048781, 2.1951219512195124, 0.426829268292683
1651,0.18505859375, -0.12841796875, -0.96142578125, -0.06097560975609757, 1.524390243902439, 0.30487804878048785
1653,0.18798828125, -0.12939453125, -0.962890625, 0.24390243902439027, 2.0121951219512195, 0.7926829268292683
1655,0.185546875, -0.12939453125, -0.9609375, 0.853658536585366, 2.378048780487805, 0.48780487804878053
1657,0.1865234375, -0.12353515625, -0.95947265625, 1.1585365853658538, 2.5609756097560976, 0.6097560975609757
1659,0.1796875, -0.11572265625, -0.96240234375, 1.4634146341463417, 1.6463414634146343, 0.30487804878048785
1661,0.17724609375, -0.119140625, -0.95849609375, 0.6097560975609757, 1.7682926829268295, 0.12195121951219513
1663,0.181640625, -0.12109375, -0.9560546875, 0.06097560975609757, 1.4634146341463417, -0.1829268292682927
1665,0.185546875, -0.1259765625, -0.9609375, 0.6707317073170732, 1.2804878048780488, -0.6097560975609757
1667,0.18994140625, -0.12646484375, -0.97216796875, 0.48780487804878053, 1.5853658536585367, -0.7317073170731708
1669,0.18359375, -0.1357421875, -0.96923828125, 1.3414634146341464, 1.6463414634146343, -0.06097560975609757
1671,0.1845703125, -0.1357421875, -0.953125, 1.3414634146341464, 1.3414634146341464, -0.12195121951219513
1673,0.18310546875, -0.13818359375, -0.9443359375, 2.073170731707317, 1.7682926829268295, -0.5487804878048781
1675,0.18359375, -0.14501953125, -0.95751953125, 3.231707317073171, 1.524390243902439, -0.3658536585365854
1677,0.17578125, -0.142578125, -0.94482421875, 2.804878048780488, 1.0975609756097562, 2.0121951219512195
1679,0.1826171875, -0.13818359375, -0.9462890625, 2.6219512195121952, 1.402439024390244, 1.6463414634146343
1681,0.1845703125, -0.14013671875, -0.9638671875, 2.0121951219512195, 3.1097560975609757, 0.7317073170731708
1683,0.18603515625, -0.140625, -0.97119140625, 1.2804878048780488, 2.9268292682926833, 0.5487804878048781
1685,0.177734375, -0.13623046875, -0.96533203125, -1.524390243902439, 2.9268292682926833, 0.5487804878048781
1687,0.18359375, -0.1455078125, -0.96240234375, -4.085365853658537, 2.804878048780488, 0.30487804878048785
1689,0.18701171875, -0.1416015625, -0.96435546875, -0.7926829268292683, 3.1097560975609757, 0.6707317073170732
1691,0.1875, -0.13818359375, -0.96923828125, -1.5853658536585367, 2.682926829268293, 0.24390243902439027
1693,0.19091796875, -0.13818359375, -0.966796875, -1.6463414634146343, 3.1707317073170733, 0.0
1695,0.18701171875, -0.1455078125, -0.955078125, -1.7682926829268295, 2.1951219512195124, -0.426829268292683
1697,0.18603515625, -0.146484375, -0.953125, -0.6707317073170732, 1.8902439024390245, -0.1829268292682927
1699,0.18310546875, -0.142578125, -0.962890625, -0.6707317073170732, 1.6463414634146343, 0.0
